"rt","stimulus","key_press","test_part","trial_type","trial_index","time_elapsed","internal_node_id","subject","target","responses","question_order","response"
"2964.2599999988306","Welcome to the experiment. Press any key to begin.","75","welcome","html-keyboard-response","0","2967","0.0-0.0","r5l2vw7lqxdnfg7","","","",""
"17702.354999999443","<p>In this study you will hear a short musical clip and then make some ratings about the emotion it expresses or conveys</p><p>First you will select which emotion you think the musical clip is expressing</p><p>You will then rate how pleasant the feeling expressed in the musical clip was and also how energetic it was</p><p>Press the space bar to begin</p>","32","instruction","html-keyboard-response","1","20670","0.0-1.0","r5l2vw7lqxdnfg7","","","",""
"null","<div style=""font-size:60px;"">+</div>","null","fixation","html-keyboard-response","2","21675","0.0-2.0-0.0","r5l2vw7lqxdnfg7","","","",""
"null","<div style=""font-size:60px;color:green"">+</div>","null","fixation","html-keyboard-response","3","22180","0.0-2.0-1.0","r5l2vw7lqxdnfg7","","","",""
"null","audio/5_Get_Lucky.mp3","null","song","audio-keyboard-response","4","23188","0.0-2.0-2.0","r5l2vw7lqxdnfg7","happy","","",""
"8197.100000001228","","","emotion_rating","survey-multi-choice","5","31388","0.0-2.0-3.0","r5l2vw7lqxdnfg7","","{""Q0"":""Happy""}","[0]",""
"5116.270000000441","<p>How negative/positive was this feeling expressed in this musical clip</p>","","valence rating","html-slider-response","6","36506","0.0-2.0-4.0","r5l2vw7lqxdnfg7","","","","77"
"2541.4749999999913","<p>How energetic/arousing was the feeling expressed in this musical clip</p>","","arousal rating","html-slider-response","7","39049","0.0-2.0-5.0","r5l2vw7lqxdnfg7","","","","57"
"null","<div style=""font-size:60px;"">+</div>","null","fixation","html-keyboard-response","8","40055","0.0-2.0-0.1","r5l2vw7lqxdnfg7","","","",""
"null","<div style=""font-size:60px;color:green"">+</div>","null","fixation","html-keyboard-response","9","40556","0.0-2.0-1.1","r5l2vw7lqxdnfg7","","","",""
"null","audio/24_Restless.mp3","null","song","audio-keyboard-response","10","41560","0.0-2.0-2.1","r5l2vw7lqxdnfg7","happy","","",""
"3956.5050000001065","","","emotion_rating","survey-multi-choice","11","45517","0.0-2.0-3.1","r5l2vw7lqxdnfg7","","{""Q0"":""Happy""}","[0]",""
"3790.929999999207","<p>How negative/positive was this feeling expressed in this musical clip</p>","","valence rating","html-slider-response","12","49309","0.0-2.0-4.1","r5l2vw7lqxdnfg7","","","","77"
"5140.004999999292","<p>How energetic/arousing was the feeling expressed in this musical clip</p>","","arousal rating","html-slider-response","13","54450","0.0-2.0-5.1","r5l2vw7lqxdnfg7","","","","84"
"null","<div style=""font-size:60px;"">+</div>","null","fixation","html-keyboard-response","14","55450","0.0-2.0-0.2","r5l2vw7lqxdnfg7","","","",""
"null","<div style=""font-size:60px;color:green"">+</div>","null","fixation","html-keyboard-response","15","55956","0.0-2.0-1.2","r5l2vw7lqxdnfg7","","","",""
"null","audio/2_Inside.mp3","null","song","audio-keyboard-response","16","56960","0.0-2.0-2.2","r5l2vw7lqxdnfg7","sad","","",""
"3834.3299999996816","","","emotion_rating","survey-multi-choice","17","60794","0.0-2.0-3.2","r5l2vw7lqxdnfg7","","{""Q0"":""Sad""}","[0]",""
"2642.584999999599","<p>How negative/positive was this feeling expressed in this musical clip</p>","","valence rating","html-slider-response","18","63438","0.0-2.0-4.2","r5l2vw7lqxdnfg7","","","","47"
"4241.115000000718","<p>How energetic/arousing was the feeling expressed in this musical clip</p>","","arousal rating","html-slider-response","19","67680","0.0-2.0-5.2","r5l2vw7lqxdnfg7","","","","30"
"null","<div style=""font-size:60px;"">+</div>","null","fixation","html-keyboard-response","20","68686","0.0-2.0-0.3","r5l2vw7lqxdnfg7","","","",""
"null","<div style=""font-size:60px;color:green"">+</div>","null","fixation","html-keyboard-response","21","69191","0.0-2.0-1.3","r5l2vw7lqxdnfg7","","","",""
"null","audio/15_Here_Today.mp3","null","song","audio-keyboard-response","22","70196","0.0-2.0-2.3","r5l2vw7lqxdnfg7","sad","","",""
"3231.8149999991874","","","emotion_rating","survey-multi-choice","23","73428","0.0-2.0-3.3","r5l2vw7lqxdnfg7","","{""Q0"":""Relaxed""}","[0]",""
"1416.4049999999406","<p>How negative/positive was this feeling expressed in this musical clip</p>","","valence rating","html-slider-response","24","74845","0.0-2.0-4.3","r5l2vw7lqxdnfg7","","","","50"
"325.84499999939","<p>How energetic/arousing was the feeling expressed in this musical clip</p>","","arousal rating","html-slider-response","25","75172","0.0-2.0-5.3","r5l2vw7lqxdnfg7","","","","50"
"null","<div style=""font-size:60px;"">+</div>","null","fixation","html-keyboard-response","26","76174","0.0-2.0-0.4","r5l2vw7lqxdnfg7","","","",""
"null","<div style=""font-size:60px;color:green"">+</div>","null","fixation","html-keyboard-response","27","76678","0.0-2.0-1.4","r5l2vw7lqxdnfg7","","","",""
"null","audio/15_Bunkertor_7_(German_Texture).mp3","null","song","audio-keyboard-response","28","77684","0.0-2.0-2.4","r5l2vw7lqxdnfg7","angry","","",""
"3730.650000001333","","","emotion_rating","survey-multi-choice","29","81415","0.0-2.0-3.4","r5l2vw7lqxdnfg7","","{""Q0"":""Angry""}","[0]",""
"6344.420000001264","<p>How negative/positive was this feeling expressed in this musical clip</p>","","valence rating","html-slider-response","30","87761","0.0-2.0-4.4","r5l2vw7lqxdnfg7","","","","45"
"5826.354999999239","<p>How energetic/arousing was the feeling expressed in this musical clip</p>","","arousal rating","html-slider-response","31","93588","0.0-2.0-5.4","r5l2vw7lqxdnfg7","","","","90"
"null","<div style=""font-size:60px;"">+</div>","null","fixation","html-keyboard-response","32","94594","0.0-2.0-0.5","r5l2vw7lqxdnfg7","","","",""
"null","<div style=""font-size:60px;color:green"">+</div>","null","fixation","html-keyboard-response","33","95095","0.0-2.0-1.5","r5l2vw7lqxdnfg7","","","",""
"null","audio/23_Inside.mp3","null","song","audio-keyboard-response","34","96099","0.0-2.0-2.5","r5l2vw7lqxdnfg7","sad","","",""
"3630.2299999988463","","","emotion_rating","survey-multi-choice","35","99730","0.0-2.0-3.5","r5l2vw7lqxdnfg7","","{""Q0"":""Happy""}","[0]",""
"4420.995000000403","<p>How negative/positive was this feeling expressed in this musical clip</p>","","valence rating","html-slider-response","36","104152","0.0-2.0-4.5","r5l2vw7lqxdnfg7","","","","64"
"4138.735000000452","<p>How energetic/arousing was the feeling expressed in this musical clip</p>","","arousal rating","html-slider-response","37","108292","0.0-2.0-5.5","r5l2vw7lqxdnfg7","","","","63"
"null","<div style=""font-size:60px;"">+</div>","null","fixation","html-keyboard-response","38","109293","0.0-2.0-0.6","r5l2vw7lqxdnfg7","","","",""
"null","<div style=""font-size:60px;color:green"">+</div>","null","fixation","html-keyboard-response","39","109795","0.0-2.0-1.6","r5l2vw7lqxdnfg7","","","",""
"null","audio/7_Digital.mp3","null","song","audio-keyboard-response","40","110800","0.0-2.0-2.6","r5l2vw7lqxdnfg7","relaxed","","",""
"3521.114999999554","","","emotion_rating","survey-multi-choice","41","114322","0.0-2.0-3.6","r5l2vw7lqxdnfg7","","{""Q0"":""Happy""}","[0]",""
"2878.740000000107","<p>How negative/positive was this feeling expressed in this musical clip</p>","","valence rating","html-slider-response","42","117202","0.0-2.0-4.6","r5l2vw7lqxdnfg7","","","","58"
"3464.5500000005995","<p>How energetic/arousing was the feeling expressed in this musical clip</p>","","arousal rating","html-slider-response","43","120667","0.0-2.0-5.6","r5l2vw7lqxdnfg7","","","","78"
"null","<div style=""font-size:60px;"">+</div>","null","fixation","html-keyboard-response","44","121673","0.0-2.0-0.7","r5l2vw7lqxdnfg7","","","",""
"null","<div style=""font-size:60px;color:green"">+</div>","null","fixation","html-keyboard-response","45","122179","0.0-2.0-1.7","r5l2vw7lqxdnfg7","","","",""
"null","audio/8_Fire_And_Rain__(LP_Version).mp3","null","song","audio-keyboard-response","46","123183","0.0-2.0-2.7","r5l2vw7lqxdnfg7","sad","","",""
"3929.9300000002404","","","emotion_rating","survey-multi-choice","47","127113","0.0-2.0-3.7","r5l2vw7lqxdnfg7","","{""Q0"":""Relaxed""}","[0]",""
"2608.5599999987608","<p>How negative/positive was this feeling expressed in this musical clip</p>","","valence rating","html-slider-response","48","129723","0.0-2.0-4.7","r5l2vw7lqxdnfg7","","","","65"
"2249.2299999994284","<p>How energetic/arousing was the feeling expressed in this musical clip</p>","","arousal rating","html-slider-response","49","131973","0.0-2.0-5.7","r5l2vw7lqxdnfg7","","","","32"
"null","<div style=""font-size:60px;"">+</div>","null","fixation","html-keyboard-response","50","132974","0.0-2.0-0.8","r5l2vw7lqxdnfg7","","","",""
"null","<div style=""font-size:60px;color:green"">+</div>","null","fixation","html-keyboard-response","51","133479","0.0-2.0-1.8","r5l2vw7lqxdnfg7","","","",""
"null","audio/13_If_The_Creeks_Don't_Rise.mp3","null","song","audio-keyboard-response","52","134484","0.0-2.0-2.8","r5l2vw7lqxdnfg7","happy","","",""
"2471.9600000007486","","","emotion_rating","survey-multi-choice","53","136957","0.0-2.0-3.8","r5l2vw7lqxdnfg7","","{""Q0"":""Happy""}","[0]",""
"2754.7300000005635","<p>How negative/positive was this feeling expressed in this musical clip</p>","","valence rating","html-slider-response","54","139713","0.0-2.0-4.8","r5l2vw7lqxdnfg7","","","","68"
"3801.9449999992503","<p>How energetic/arousing was the feeling expressed in this musical clip</p>","","arousal rating","html-slider-response","55","143515","0.0-2.0-5.8","r5l2vw7lqxdnfg7","","","","78"
"null","<div style=""font-size:60px;"">+</div>","null","fixation","html-keyboard-response","56","144517","0.0-2.0-0.9","r5l2vw7lqxdnfg7","","","",""
"null","<div style=""font-size:60px;color:green"">+</div>","null","fixation","html-keyboard-response","57","145022","0.0-2.0-1.9","r5l2vw7lqxdnfg7","","","",""
"null","audio/1_Skinny_Love.mp3","null","song","audio-keyboard-response","58","146025","0.0-2.0-2.9","r5l2vw7lqxdnfg7","sad","","",""
"2124.014999999403","","","emotion_rating","survey-multi-choice","59","148150","0.0-2.0-3.9","r5l2vw7lqxdnfg7","","{""Q0"":""Sad""}","[0]",""
"11935.190000000148","<p>How negative/positive was this feeling expressed in this musical clip</p>","","valence rating","html-slider-response","60","160086","0.0-2.0-4.9","r5l2vw7lqxdnfg7","","","","24"
"2294.4099999986065","<p>How energetic/arousing was the feeling expressed in this musical clip</p>","","arousal rating","html-slider-response","61","162381","0.0-2.0-5.9","r5l2vw7lqxdnfg7","","","","43"
"null","<div style=""font-size:60px;"">+</div>","null","fixation","html-keyboard-response","62","163384","0.0-2.0-0.10","r5l2vw7lqxdnfg7","","","",""
"null","<div style=""font-size:60px;color:green"">+</div>","null","fixation","html-keyboard-response","63","163888","0.0-2.0-1.10","r5l2vw7lqxdnfg7","","","",""
"null","audio/4_Make_Light.mp3","null","song","audio-keyboard-response","64","164893","0.0-2.0-2.10","r5l2vw7lqxdnfg7","happy","","",""
"2595.475000000093","","","emotion_rating","survey-multi-choice","65","167489","0.0-2.0-3.10","r5l2vw7lqxdnfg7","","{""Q0"":""Happy""}","[0]",""
"5814.38499999966","<p>How negative/positive was this feeling expressed in this musical clip</p>","","valence rating","html-slider-response","66","173305","0.0-2.0-4.10","r5l2vw7lqxdnfg7","","","","76"
"2587.279999999737","<p>How energetic/arousing was the feeling expressed in this musical clip</p>","","arousal rating","html-slider-response","67","175893","0.0-2.0-5.10","r5l2vw7lqxdnfg7","","","","67"
"null","<div style=""font-size:60px;"">+</div>","null","fixation","html-keyboard-response","68","176899","0.0-2.0-0.11","r5l2vw7lqxdnfg7","","","",""
"null","<div style=""font-size:60px;color:green"">+</div>","null","fixation","html-keyboard-response","69","177404","0.0-2.0-1.11","r5l2vw7lqxdnfg7","","","",""
"null","audio/19_I_hate_Everything_About_You.mp3","null","song","audio-keyboard-response","70","178408","0.0-2.0-2.11","r5l2vw7lqxdnfg7","angry","","",""
"3244.200000001001","","","emotion_rating","survey-multi-choice","71","181653","0.0-2.0-3.11","r5l2vw7lqxdnfg7","","{""Q0"":""Angry""}","[0]",""
"2495.985000001383","<p>How negative/positive was this feeling expressed in this musical clip</p>","","valence rating","html-slider-response","72","184150","0.0-2.0-4.11","r5l2vw7lqxdnfg7","","","","35"
"1799.3449999994482","<p>How energetic/arousing was the feeling expressed in this musical clip</p>","","arousal rating","html-slider-response","73","185950","0.0-2.0-5.11","r5l2vw7lqxdnfg7","","","","87"
"null","<div style=""font-size:60px;"">+</div>","null","fixation","html-keyboard-response","74","186951","0.0-2.0-0.12","r5l2vw7lqxdnfg7","","","",""
"null","<div style=""font-size:60px;color:green"">+</div>","null","fixation","html-keyboard-response","75","187456","0.0-2.0-1.12","r5l2vw7lqxdnfg7","","","",""
"null","audio/21_Skank_Down.mp3","null","song","audio-keyboard-response","76","188462","0.0-2.0-2.12","r5l2vw7lqxdnfg7","happy","","",""
"1773.639999999432","","","emotion_rating","survey-multi-choice","77","190236","0.0-2.0-3.12","r5l2vw7lqxdnfg7","","{""Q0"":""Happy""}","[0]",""
"1708.740000000049","<p>How negative/positive was this feeling expressed in this musical clip</p>","","valence rating","html-slider-response","78","191946","0.0-2.0-4.12","r5l2vw7lqxdnfg7","","","","82"
"1517.6650000012014","<p>How energetic/arousing was the feeling expressed in this musical clip</p>","","arousal rating","html-slider-response","79","193464","0.0-2.0-5.12","r5l2vw7lqxdnfg7","","","","76"
"null","<div style=""font-size:60px;"">+</div>","null","fixation","html-keyboard-response","80","194465","0.0-2.0-0.13","r5l2vw7lqxdnfg7","","","",""
"null","<div style=""font-size:60px;color:green"">+</div>","null","fixation","html-keyboard-response","81","194971","0.0-2.0-1.13","r5l2vw7lqxdnfg7","","","",""
"null","audio/1_Be_Happy.mp3","null","song","audio-keyboard-response","82","195975","0.0-2.0-2.13","r5l2vw7lqxdnfg7","happy","","",""
"2224.999999998545","","","emotion_rating","survey-multi-choice","83","198201","0.0-2.0-3.13","r5l2vw7lqxdnfg7","","{""Q0"":""Happy""}","[0]",""
"2361.8000000005995","<p>How negative/positive was this feeling expressed in this musical clip</p>","","valence rating","html-slider-response","84","200563","0.0-2.0-4.13","r5l2vw7lqxdnfg7","","","","77"
"1742.7700000007462","<p>How energetic/arousing was the feeling expressed in this musical clip</p>","","arousal rating","html-slider-response","85","202307","0.0-2.0-5.13","r5l2vw7lqxdnfg7","","","","86"
"null","<div style=""font-size:60px;"">+</div>","null","fixation","html-keyboard-response","86","203307","0.0-2.0-0.14","r5l2vw7lqxdnfg7","","","",""
"null","<div style=""font-size:60px;color:green"">+</div>","null","fixation","html-keyboard-response","87","203811","0.0-2.0-1.14","r5l2vw7lqxdnfg7","","","",""
"null","audio/4_Destiny.mp3","null","song","audio-keyboard-response","88","204815","0.0-2.0-2.14","r5l2vw7lqxdnfg7","relaxed","","",""
"2847.865000001533","","","emotion_rating","survey-multi-choice","89","207664","0.0-2.0-3.14","r5l2vw7lqxdnfg7","","{""Q0"":""Relaxed""}","[0]",""
"2281.3050000004005","<p>How negative/positive was this feeling expressed in this musical clip</p>","","valence rating","html-slider-response","90","209946","0.0-2.0-4.14","r5l2vw7lqxdnfg7","","","","50"
"1214.4900000003108","<p>How energetic/arousing was the feeling expressed in this musical clip</p>","","arousal rating","html-slider-response","91","211161","0.0-2.0-5.14","r5l2vw7lqxdnfg7","","","","50"
"null","<div style=""font-size:60px;"">+</div>","null","fixation","html-keyboard-response","92","212161","0.0-2.0-0.15","r5l2vw7lqxdnfg7","","","",""
"null","<div style=""font-size:60px;color:green"">+</div>","null","fixation","html-keyboard-response","93","212664","0.0-2.0-1.15","r5l2vw7lqxdnfg7","","","",""
"null","audio/11_Be_Happy.mp3","null","song","audio-keyboard-response","94","213669","0.0-2.0-2.15","r5l2vw7lqxdnfg7","happy","","",""
"3105.5550000001094","","","emotion_rating","survey-multi-choice","95","216775","0.0-2.0-3.15","r5l2vw7lqxdnfg7","","{""Q0"":""Happy""}","[0]",""
"8143.589999999676","<p>How negative/positive was this feeling expressed in this musical clip</p>","","valence rating","html-slider-response","96","224920","0.0-2.0-4.15","r5l2vw7lqxdnfg7","","","","73"
"3463.9950000000827","<p>How energetic/arousing was the feeling expressed in this musical clip</p>","","arousal rating","html-slider-response","97","228385","0.0-2.0-5.15","r5l2vw7lqxdnfg7","","","","77"
"null","<div style=""font-size:60px;"">+</div>","null","fixation","html-keyboard-response","98","229391","0.0-2.0-0.16","r5l2vw7lqxdnfg7","","","",""
"null","<div style=""font-size:60px;color:green"">+</div>","null","fixation","html-keyboard-response","99","229892","0.0-2.0-1.16","r5l2vw7lqxdnfg7","","","",""
"null","audio/12_Fire_And_Rain_(LP_Version).mp3","null","song","audio-keyboard-response","100","230897","0.0-2.0-2.16","r5l2vw7lqxdnfg7","sad","","",""
"2482.105000000971","","","emotion_rating","survey-multi-choice","101","233380","0.0-2.0-3.16","r5l2vw7lqxdnfg7","","{""Q0"":""Relaxed""}","[0]",""
"2080.0149999995483","<p>How negative/positive was this feeling expressed in this musical clip</p>","","valence rating","html-slider-response","102","235461","0.0-2.0-4.16","r5l2vw7lqxdnfg7","","","","57"
"2935.639999999723","<p>How energetic/arousing was the feeling expressed in this musical clip</p>","","arousal rating","html-slider-response","103","238397","0.0-2.0-5.16","r5l2vw7lqxdnfg7","","","","38"
"null","<div style=""font-size:60px;"">+</div>","null","fixation","html-keyboard-response","104","239399","0.0-2.0-0.17","r5l2vw7lqxdnfg7","","","",""
"null","<div style=""font-size:60px;color:green"">+</div>","null","fixation","html-keyboard-response","105","239899","0.0-2.0-1.17","r5l2vw7lqxdnfg7","","","",""
"null","audio/5_Valerie.mp3","null","song","audio-keyboard-response","106","240903","0.0-2.0-2.17","r5l2vw7lqxdnfg7","happy","","",""
"5897.565000001137","","","emotion_rating","survey-multi-choice","107","246801","0.0-2.0-3.17","r5l2vw7lqxdnfg7","","{""Q0"":""Happy""}","[0]",""
"2866.9650000010733","<p>How negative/positive was this feeling expressed in this musical clip</p>","","valence rating","html-slider-response","108","249669","0.0-2.0-4.17","r5l2vw7lqxdnfg7","","","","73"
"1338.4949999999662","<p>How energetic/arousing was the feeling expressed in this musical clip</p>","","arousal rating","html-slider-response","109","251008","0.0-2.0-5.17","r5l2vw7lqxdnfg7","","","","81"
"null","<div style=""font-size:60px;"">+</div>","null","fixation","html-keyboard-response","110","252014","0.0-2.0-0.18","r5l2vw7lqxdnfg7","","","",""
"null","<div style=""font-size:60px;color:green"">+</div>","null","fixation","html-keyboard-response","111","252515","0.0-2.0-1.18","r5l2vw7lqxdnfg7","","","",""
"null","audio/3_Old_Blacktop_[Album_Version].mp3","null","song","audio-keyboard-response","112","253521","0.0-2.0-2.18","r5l2vw7lqxdnfg7","sad","","",""
"2290.4550000003073","","","emotion_rating","survey-multi-choice","113","255812","0.0-2.0-3.18","r5l2vw7lqxdnfg7","","{""Q0"":""Sad""}","[0]",""
"3711.805000000808","<p>How negative/positive was this feeling expressed in this musical clip</p>","","valence rating","html-slider-response","114","259524","0.0-2.0-4.18","r5l2vw7lqxdnfg7","","","","28"
"3498.1050000005635","<p>How energetic/arousing was the feeling expressed in this musical clip</p>","","arousal rating","html-slider-response","115","263023","0.0-2.0-5.18","r5l2vw7lqxdnfg7","","","","28"
"null","<div style=""font-size:60px;"">+</div>","null","fixation","html-keyboard-response","116","264029","0.0-2.0-0.19","r5l2vw7lqxdnfg7","","","",""
"null","<div style=""font-size:60px;color:green"">+</div>","null","fixation","html-keyboard-response","117","264529","0.0-2.0-1.19","r5l2vw7lqxdnfg7","","","",""
"null","audio/1_The_Sweetest.mp3","null","song","audio-keyboard-response","118","265534","0.0-2.0-2.19","r5l2vw7lqxdnfg7","relaxed","","",""
"3800.5350000003236","","","emotion_rating","survey-multi-choice","119","269335","0.0-2.0-3.19","r5l2vw7lqxdnfg7","","{""Q0"":""None of these""}","[0]",""
"2417.34500000166","<p>How negative/positive was this feeling expressed in this musical clip</p>","","valence rating","html-slider-response","120","271753","0.0-2.0-4.19","r5l2vw7lqxdnfg7","","","","50"
"639.869999999064","<p>How energetic/arousing was the feeling expressed in this musical clip</p>","","arousal rating","html-slider-response","121","272394","0.0-2.0-5.19","r5l2vw7lqxdnfg7","","","","50"
"null","<div style=""font-size:60px;"">+</div>","null","fixation","html-keyboard-response","122","273394","0.0-2.0-0.20","r5l2vw7lqxdnfg7","","","",""
"null","<div style=""font-size:60px;color:green"">+</div>","null","fixation","html-keyboard-response","123","273900","0.0-2.0-1.20","r5l2vw7lqxdnfg7","","","",""
"null","audio/13_Motown_Junk.mp3","null","song","audio-keyboard-response","124","274905","0.0-2.0-2.20","r5l2vw7lqxdnfg7","angry","","",""
"5116.609999999113","","","emotion_rating","survey-multi-choice","125","280022","0.0-2.0-3.20","r5l2vw7lqxdnfg7","","{""Q0"":""Angry""}","[0]",""
"3811.909999998519","<p>How negative/positive was this feeling expressed in this musical clip</p>","","valence rating","html-slider-response","126","283835","0.0-2.0-4.20","r5l2vw7lqxdnfg7","","","","38"
"2407.105000000214","<p>How energetic/arousing was the feeling expressed in this musical clip</p>","","arousal rating","html-slider-response","127","286243","0.0-2.0-5.20","r5l2vw7lqxdnfg7","","","","77"
"null","<div style=""font-size:60px;"">+</div>","null","fixation","html-keyboard-response","128","287249","0.0-2.0-0.21","r5l2vw7lqxdnfg7","","","",""
"null","<div style=""font-size:60px;color:green"">+</div>","null","fixation","html-keyboard-response","129","287750","0.0-2.0-1.21","r5l2vw7lqxdnfg7","","","",""
"null","audio/4_Mbube.mp3","null","song","audio-keyboard-response","130","288756","0.0-2.0-2.21","r5l2vw7lqxdnfg7","relaxed","","",""
"4236.790000000852","","","emotion_rating","survey-multi-choice","131","292993","0.0-2.0-3.21","r5l2vw7lqxdnfg7","","{""Q0"":""Happy""}","[0]",""
"1674.8000000006869","<p>How negative/positive was this feeling expressed in this musical clip</p>","","valence rating","html-slider-response","132","294669","0.0-2.0-4.21","r5l2vw7lqxdnfg7","","","","65"
"2575.4299999989453","<p>How energetic/arousing was the feeling expressed in this musical clip</p>","","arousal rating","html-slider-response","133","297246","0.0-2.0-5.21","r5l2vw7lqxdnfg7","","","","70"
"null","<div style=""font-size:60px;"">+</div>","null","fixation","html-keyboard-response","134","298250","0.0-2.0-0.22","r5l2vw7lqxdnfg7","","","",""
"null","<div style=""font-size:60px;color:green"">+</div>","null","fixation","html-keyboard-response","135","298752","0.0-2.0-1.22","r5l2vw7lqxdnfg7","","","",""
"null","audio/2_Incomplete.mp3","null","song","audio-keyboard-response","136","299758","0.0-2.0-2.22","r5l2vw7lqxdnfg7","angry","","",""
"1964.7700000004843","","","emotion_rating","survey-multi-choice","137","301723","0.0-2.0-3.22","r5l2vw7lqxdnfg7","","{""Q0"":""Angry""}","[0]",""
"2732.1549999996787","<p>How negative/positive was this feeling expressed in this musical clip</p>","","valence rating","html-slider-response","138","304457","0.0-2.0-4.22","r5l2vw7lqxdnfg7","","","","20"
"1596.6950000001816","<p>How energetic/arousing was the feeling expressed in this musical clip</p>","","arousal rating","html-slider-response","139","306054","0.0-2.0-5.22","r5l2vw7lqxdnfg7","","","","78"
"null","<div style=""font-size:60px;"">+</div>","null","fixation","html-keyboard-response","140","307057","0.0-2.0-0.23","r5l2vw7lqxdnfg7","","","",""
"null","<div style=""font-size:60px;color:green"">+</div>","null","fixation","html-keyboard-response","141","307560","0.0-2.0-1.23","r5l2vw7lqxdnfg7","","","",""
"null","audio/16_Restless.mp3","null","song","audio-keyboard-response","142","308562","0.0-2.0-2.23","r5l2vw7lqxdnfg7","happy","","",""
"2037.1500000000815","","","emotion_rating","survey-multi-choice","143","310600","0.0-2.0-3.23","r5l2vw7lqxdnfg7","","{""Q0"":""Happy""}","[0]",""
"2428.7150000000256","<p>How negative/positive was this feeling expressed in this musical clip</p>","","valence rating","html-slider-response","144","313029","0.0-2.0-4.23","r5l2vw7lqxdnfg7","","","","71"
"3992.430000000226","<p>How energetic/arousing was the feeling expressed in this musical clip</p>","","arousal rating","html-slider-response","145","317023","0.0-2.0-5.23","r5l2vw7lqxdnfg7","","","","65"
"null","<div style=""font-size:60px;"">+</div>","null","fixation","html-keyboard-response","146","318028","0.0-2.0-0.24","r5l2vw7lqxdnfg7","","","",""
"null","<div style=""font-size:60px;color:green"">+</div>","null","fixation","html-keyboard-response","147","318534","0.0-2.0-1.24","r5l2vw7lqxdnfg7","","","",""
"null","audio/2_Boser_Wolf.mp3","null","song","audio-keyboard-response","148","319539","0.0-2.0-2.24","r5l2vw7lqxdnfg7","sad","","",""
"6539.104999999807","","","emotion_rating","survey-multi-choice","149","326079","0.0-2.0-3.24","r5l2vw7lqxdnfg7","","{""Q0"":""Sad""}","[0]",""
"1562.2700000003679","<p>How negative/positive was this feeling expressed in this musical clip</p>","","valence rating","html-slider-response","150","327643","0.0-2.0-4.24","r5l2vw7lqxdnfg7","","","","37"
"1822.725000000035","<p>How energetic/arousing was the feeling expressed in this musical clip</p>","","arousal rating","html-slider-response","151","329466","0.0-2.0-5.24","r5l2vw7lqxdnfg7","","","","26"
"null","<div style=""font-size:60px;"">+</div>","null","fixation","html-keyboard-response","152","330469","0.0-2.0-0.25","r5l2vw7lqxdnfg7","","","",""
"null","<div style=""font-size:60px;color:green"">+</div>","null","fixation","html-keyboard-response","153","330971","0.0-2.0-1.25","r5l2vw7lqxdnfg7","","","",""
"null","audio/8_Restless.mp3","null","song","audio-keyboard-response","154","331975","0.0-2.0-2.25","r5l2vw7lqxdnfg7","happy","","",""
"2810.0450000001583","","","emotion_rating","survey-multi-choice","155","334786","0.0-2.0-3.25","r5l2vw7lqxdnfg7","","{""Q0"":""Happy""}","[0]",""
"2305.7950000002165","<p>How negative/positive was this feeling expressed in this musical clip</p>","","valence rating","html-slider-response","156","337093","0.0-2.0-4.25","r5l2vw7lqxdnfg7","","","","71"
"1405.5900000003166","<p>How energetic/arousing was the feeling expressed in this musical clip</p>","","arousal rating","html-slider-response","157","338499","0.0-2.0-5.25","r5l2vw7lqxdnfg7","","","","87"
"null","<div style=""font-size:60px;"">+</div>","null","fixation","html-keyboard-response","158","339505","0.0-2.0-0.26","r5l2vw7lqxdnfg7","","","",""
"null","<div style=""font-size:60px;color:green"">+</div>","null","fixation","html-keyboard-response","159","340010","0.0-2.0-1.26","r5l2vw7lqxdnfg7","","","",""
"null","audio/5_Love's_Requiem.mp3","null","song","audio-keyboard-response","160","341015","0.0-2.0-2.26","r5l2vw7lqxdnfg7","sad","","",""
"2534.4499999991967","","","emotion_rating","survey-multi-choice","161","343551","0.0-2.0-3.26","r5l2vw7lqxdnfg7","","{""Q0"":""Sad""}","[0]",""
"4869.575000000652","<p>How negative/positive was this feeling expressed in this musical clip</p>","","valence rating","html-slider-response","162","348421","0.0-2.0-4.26","r5l2vw7lqxdnfg7","","","","16"
"1742.5449999991688","<p>How energetic/arousing was the feeling expressed in this musical clip</p>","","arousal rating","html-slider-response","163","350165","0.0-2.0-5.26","r5l2vw7lqxdnfg7","","","","17"
"null","<div style=""font-size:60px;"">+</div>","null","fixation","html-keyboard-response","164","351170","0.0-2.0-0.27","r5l2vw7lqxdnfg7","","","",""
"null","<div style=""font-size:60px;color:green"">+</div>","null","fixation","html-keyboard-response","165","351671","0.0-2.0-1.27","r5l2vw7lqxdnfg7","","","",""
"null","audio/12_Skinny_Love.mp3","null","song","audio-keyboard-response","166","352676","0.0-2.0-2.27","r5l2vw7lqxdnfg7","sad","","",""
"2079.004999999597","","","emotion_rating","survey-multi-choice","167","354755","0.0-2.0-3.27","r5l2vw7lqxdnfg7","","{""Q0"":""Sad""}","[0]",""
"1820.9200000001001","<p>How negative/positive was this feeling expressed in this musical clip</p>","","valence rating","html-slider-response","168","356577","0.0-2.0-4.27","r5l2vw7lqxdnfg7","","","","16"
"1326.979999999865","<p>How energetic/arousing was the feeling expressed in this musical clip</p>","","arousal rating","html-slider-response","169","357905","0.0-2.0-5.27","r5l2vw7lqxdnfg7","","","","14"
"null","<div style=""font-size:60px;"">+</div>","null","fixation","html-keyboard-response","170","358910","0.0-2.0-0.28","r5l2vw7lqxdnfg7","","","",""
"null","<div style=""font-size:60px;color:green"">+</div>","null","fixation","html-keyboard-response","171","359411","0.0-2.0-1.28","r5l2vw7lqxdnfg7","","","",""
"null","audio/2_Sweet_Song.mp3","null","song","audio-keyboard-response","172","360416","0.0-2.0-2.28","r5l2vw7lqxdnfg7","relaxed","","",""
"1673.1149999995832","","","emotion_rating","survey-multi-choice","173","362090","0.0-2.0-3.28","r5l2vw7lqxdnfg7","","{""Q0"":""Sad""}","[0]",""
"2699.219999998575","<p>How negative/positive was this feeling expressed in this musical clip</p>","","valence rating","html-slider-response","174","364790","0.0-2.0-4.28","r5l2vw7lqxdnfg7","","","","16"
"1630.3449999996228","<p>How energetic/arousing was the feeling expressed in this musical clip</p>","","arousal rating","html-slider-response","175","366421","0.0-2.0-5.28","r5l2vw7lqxdnfg7","","","","6"
"null","<div style=""font-size:60px;"">+</div>","null","fixation","html-keyboard-response","176","367427","0.0-2.0-0.29","r5l2vw7lqxdnfg7","","","",""
"null","<div style=""font-size:60px;color:green"">+</div>","null","fixation","html-keyboard-response","177","367930","0.0-2.0-1.29","r5l2vw7lqxdnfg7","","","",""
"null","audio/2_Blood_On_The_Ground.mp3","null","song","audio-keyboard-response","178","368935","0.0-2.0-2.29","r5l2vw7lqxdnfg7","angry","","",""
"3268.6100000009756","","","emotion_rating","survey-multi-choice","179","372204","0.0-2.0-3.29","r5l2vw7lqxdnfg7","","{""Q0"":""Angry""}","[0]",""
"2608.8949999993783","<p>How negative/positive was this feeling expressed in this musical clip</p>","","valence rating","html-slider-response","180","374814","0.0-2.0-4.29","r5l2vw7lqxdnfg7","","","","23"
"2034.789999999688","<p>How energetic/arousing was the feeling expressed in this musical clip</p>","","arousal rating","html-slider-response","181","376849","0.0-2.0-5.29","r5l2vw7lqxdnfg7","","","","77"
"null","<div style=""font-size:60px;"">+</div>","null","fixation","html-keyboard-response","182","377850","0.0-2.0-0.30","r5l2vw7lqxdnfg7","","","",""
"null","<div style=""font-size:60px;color:green"">+</div>","null","fixation","html-keyboard-response","183","378356","0.0-2.0-1.30","r5l2vw7lqxdnfg7","","","",""
"null","audio/12_Skank_Down.mp3","null","song","audio-keyboard-response","184","379361","0.0-2.0-2.30","r5l2vw7lqxdnfg7","happy","","",""
"3405.3650000005728","","","emotion_rating","survey-multi-choice","185","382768","0.0-2.0-3.30","r5l2vw7lqxdnfg7","","{""Q0"":""Happy""}","[0]",""
"1854.8650000011548","<p>How negative/positive was this feeling expressed in this musical clip</p>","","valence rating","html-slider-response","186","384624","0.0-2.0-4.30","r5l2vw7lqxdnfg7","","","","78"
"1945.3000000012107","<p>How energetic/arousing was the feeling expressed in this musical clip</p>","","arousal rating","html-slider-response","187","386570","0.0-2.0-5.30","r5l2vw7lqxdnfg7","","","","78"
"null","<div style=""font-size:60px;"">+</div>","null","fixation","html-keyboard-response","188","387572","0.0-2.0-0.31","r5l2vw7lqxdnfg7","","","",""
"null","<div style=""font-size:60px;color:green"">+</div>","null","fixation","html-keyboard-response","189","388076","0.0-2.0-1.31","r5l2vw7lqxdnfg7","","","",""
"null","audio/3_Walk_on_the_wild_side.mp3","null","song","audio-keyboard-response","190","389081","0.0-2.0-2.31","r5l2vw7lqxdnfg7","relaxed","","",""
"3348.6700000012643","","","emotion_rating","survey-multi-choice","191","392431","0.0-2.0-3.31","r5l2vw7lqxdnfg7","","{""Q0"":""Relaxed""}","[0]",""
"1225.6900000011665","<p>How negative/positive was this feeling expressed in this musical clip</p>","","valence rating","html-slider-response","192","393657","0.0-2.0-4.31","r5l2vw7lqxdnfg7","","","","50"
"224.140000000305","<p>How energetic/arousing was the feeling expressed in this musical clip</p>","","arousal rating","html-slider-response","193","393882","0.0-2.0-5.31","r5l2vw7lqxdnfg7","","","","50"
"null","<div style=""font-size:60px;"">+</div>","null","fixation","html-keyboard-response","194","394888","0.0-2.0-0.32","r5l2vw7lqxdnfg7","","","",""
"null","<div style=""font-size:60px;color:green"">+</div>","null","fixation","html-keyboard-response","195","395388","0.0-2.0-1.32","r5l2vw7lqxdnfg7","","","",""
"null","audio/14_Get_Lucky.mp3","null","song","audio-keyboard-response","196","396394","0.0-2.0-2.32","r5l2vw7lqxdnfg7","happy","","",""
"3168.519999999262","","","emotion_rating","survey-multi-choice","197","399564","0.0-2.0-3.32","r5l2vw7lqxdnfg7","","{""Q0"":""Happy""}","[0]",""
"2653.5100000001257","<p>How negative/positive was this feeling expressed in this musical clip</p>","","valence rating","html-slider-response","198","402218","0.0-2.0-4.32","r5l2vw7lqxdnfg7","","","","66"
"2125.0050000016927","<p>How energetic/arousing was the feeling expressed in this musical clip</p>","","arousal rating","html-slider-response","199","404344","0.0-2.0-5.32","r5l2vw7lqxdnfg7","","","","67"
"null","<div style=""font-size:60px;"">+</div>","null","fixation","html-keyboard-response","200","405345","0.0-2.0-0.33","r5l2vw7lqxdnfg7","","","",""
"null","<div style=""font-size:60px;color:green"">+</div>","null","fixation","html-keyboard-response","201","405850","0.0-2.0-1.33","r5l2vw7lqxdnfg7","","","",""
"null","audio/9_If_The_Creeks_Don't_Rise.mp3","null","song","audio-keyboard-response","202","406855","0.0-2.0-2.33","r5l2vw7lqxdnfg7","happy","","",""
"40609.87000000023","","","emotion_rating","survey-multi-choice","203","447466","0.0-2.0-3.33","r5l2vw7lqxdnfg7","","{""Q0"":""Happy""}","[0]",""
"2361.095000000205","<p>How negative/positive was this feeling expressed in this musical clip</p>","","valence rating","html-slider-response","204","449828","0.0-2.0-4.33","r5l2vw7lqxdnfg7","","","","63"
"1787.8349999991478","<p>How energetic/arousing was the feeling expressed in this musical clip</p>","","arousal rating","html-slider-response","205","451617","0.0-2.0-5.33","r5l2vw7lqxdnfg7","","","","73"
"null","<div style=""font-size:60px;"">+</div>","null","fixation","html-keyboard-response","206","452619","0.0-2.0-0.34","r5l2vw7lqxdnfg7","","","",""
"null","<div style=""font-size:60px;color:green"">+</div>","null","fixation","html-keyboard-response","207","453120","0.0-2.0-1.34","r5l2vw7lqxdnfg7","","","",""
"null","audio/4_Come_On_Baby.mp3","null","song","audio-keyboard-response","208","454123","0.0-2.0-2.34","r5l2vw7lqxdnfg7","relaxed","","",""
"4412.314999999595","","","emotion_rating","survey-multi-choice","209","458536","0.0-2.0-3.34","r5l2vw7lqxdnfg7","","{""Q0"":""Relaxed""}","[0]",""
"1191.4949999991804","<p>How negative/positive was this feeling expressed in this musical clip</p>","","valence rating","html-slider-response","210","459728","0.0-2.0-4.34","r5l2vw7lqxdnfg7","","","","50"
"268.804999999702","<p>How energetic/arousing was the feeling expressed in this musical clip</p>","","arousal rating","html-slider-response","211","459998","0.0-2.0-5.34","r5l2vw7lqxdnfg7","","","","50"
"null","<div style=""font-size:60px;"">+</div>","null","fixation","html-keyboard-response","212","461001","0.0-2.0-0.35","r5l2vw7lqxdnfg7","","","",""
"null","<div style=""font-size:60px;color:green"">+</div>","null","fixation","html-keyboard-response","213","461507","0.0-2.0-1.35","r5l2vw7lqxdnfg7","","","",""
"null","audio/26_Make_Light.mp3","null","song","audio-keyboard-response","214","462509","0.0-2.0-2.35","r5l2vw7lqxdnfg7","happy","","",""
"8231.680000000808","","","emotion_rating","survey-multi-choice","215","470741","0.0-2.0-3.35","r5l2vw7lqxdnfg7","","{""Q0"":""Happy""}","[0]",""
"2744.4599999999045","<p>How negative/positive was this feeling expressed in this musical clip</p>","","valence rating","html-slider-response","216","473487","0.0-2.0-4.35","r5l2vw7lqxdnfg7","","","","73"
"1337.7550000004703","<p>How energetic/arousing was the feeling expressed in this musical clip</p>","","arousal rating","html-slider-response","217","474825","0.0-2.0-5.35","r5l2vw7lqxdnfg7","","","","84"
"null","<div style=""font-size:60px;"">+</div>","null","fixation","html-keyboard-response","218","475831","0.0-2.0-0.36","r5l2vw7lqxdnfg7","","","",""
"null","<div style=""font-size:60px;color:green"">+</div>","null","fixation","html-keyboard-response","219","476332","0.0-2.0-1.36","r5l2vw7lqxdnfg7","","","",""
"null","audio/26_It_Only_Hurts_When_I'm_Breathing.mp3","null","song","audio-keyboard-response","220","477337","0.0-2.0-2.36","r5l2vw7lqxdnfg7","sad","","",""
"4462.4899999999325","","","emotion_rating","survey-multi-choice","221","481800","0.0-2.0-3.36","r5l2vw7lqxdnfg7","","{""Q0"":""Sad""}","[0]",""
"2913.5599999990663","<p>How negative/positive was this feeling expressed in this musical clip</p>","","valence rating","html-slider-response","222","484714","0.0-2.0-4.36","r5l2vw7lqxdnfg7","","","","25"
"1101.0499999992899","<p>How energetic/arousing was the feeling expressed in this musical clip</p>","","arousal rating","html-slider-response","223","485816","0.0-2.0-5.36","r5l2vw7lqxdnfg7","","","","14"
"null","<div style=""font-size:60px;"">+</div>","null","fixation","html-keyboard-response","224","486822","0.0-2.0-0.37","r5l2vw7lqxdnfg7","","","",""
"null","<div style=""font-size:60px;color:green"">+</div>","null","fixation","html-keyboard-response","225","487324","0.0-2.0-1.37","r5l2vw7lqxdnfg7","","","",""
"null","audio/2_On_A_Slow_Boat_To_China.mp3","null","song","audio-keyboard-response","226","488330","0.0-2.0-2.37","r5l2vw7lqxdnfg7","relaxed","","",""
"4359.3650000002235","","","emotion_rating","survey-multi-choice","227","492690","0.0-2.0-3.37","r5l2vw7lqxdnfg7","","{""Q0"":""None of these""}","[0]",""
"5230.550000000221","<p>How negative/positive was this feeling expressed in this musical clip</p>","","valence rating","html-slider-response","228","497921","0.0-2.0-4.37","r5l2vw7lqxdnfg7","","","","50"
"449.3050000000512","<p>How energetic/arousing was the feeling expressed in this musical clip</p>","","arousal rating","html-slider-response","229","498371","0.0-2.0-5.37","r5l2vw7lqxdnfg7","","","","50"
"null","<div style=""font-size:60px;"">+</div>","null","fixation","html-keyboard-response","230","499373","0.0-2.0-0.38","r5l2vw7lqxdnfg7","","","",""
"null","<div style=""font-size:60px;color:green"">+</div>","null","fixation","html-keyboard-response","231","499879","0.0-2.0-1.38","r5l2vw7lqxdnfg7","","","",""
"null","audio/28_Valerie.mp3","null","song","audio-keyboard-response","232","500883","0.0-2.0-2.38","r5l2vw7lqxdnfg7","happy","","",""
"2808.7550000000047","","","emotion_rating","survey-multi-choice","233","503693","0.0-2.0-3.38","r5l2vw7lqxdnfg7","","{""Q0"":""Happy""}","[0]",""
"3407.909999999916","<p>How negative/positive was this feeling expressed in this musical clip</p>","","valence rating","html-slider-response","234","507102","0.0-2.0-4.38","r5l2vw7lqxdnfg7","","","","76"
"1416.4299999992945","<p>How energetic/arousing was the feeling expressed in this musical clip</p>","","arousal rating","html-slider-response","235","508519","0.0-2.0-5.38","r5l2vw7lqxdnfg7","","","","81"
"null","<div style=""font-size:60px;"">+</div>","null","fixation","html-keyboard-response","236","509521","0.0-2.0-0.39","r5l2vw7lqxdnfg7","","","",""
"null","<div style=""font-size:60px;color:green"">+</div>","null","fixation","html-keyboard-response","237","510027","0.0-2.0-1.39","r5l2vw7lqxdnfg7","","","",""
"null","audio/13_Boser_Wolf.mp3","null","song","audio-keyboard-response","238","511031","0.0-2.0-2.39","r5l2vw7lqxdnfg7","sad","","",""
"3078.4850000000442","","","emotion_rating","survey-multi-choice","239","514111","0.0-2.0-3.39","r5l2vw7lqxdnfg7","","{""Q0"":""Sad""}","[0]",""
"7254.65500000061","<p>How negative/positive was this feeling expressed in this musical clip</p>","","valence rating","html-slider-response","240","521366","0.0-2.0-4.39","r5l2vw7lqxdnfg7","","","","23"
"3261.570000000589","<p>How energetic/arousing was the feeling expressed in this musical clip</p>","","arousal rating","html-slider-response","241","524629","0.0-2.0-5.39","r5l2vw7lqxdnfg7","","","","10"
"null","<div style=""font-size:60px;"">+</div>","null","fixation","html-keyboard-response","242","525635","0.0-2.0-0.40","r5l2vw7lqxdnfg7","","","",""
"null","<div style=""font-size:60px;color:green"">+</div>","null","fixation","html-keyboard-response","243","526139","0.0-2.0-1.40","r5l2vw7lqxdnfg7","","","",""
"null","audio/3_It_Only_Hurts_When_I'm_Breathing.mp3","null","song","audio-keyboard-response","244","527144","0.0-2.0-2.40","r5l2vw7lqxdnfg7","sad","","",""
"2187.224999999744","","","emotion_rating","survey-multi-choice","245","529332","0.0-2.0-3.40","r5l2vw7lqxdnfg7","","{""Q0"":""Sad""}","[0]",""
"3384.645000000135","<p>How negative/positive was this feeling expressed in this musical clip</p>","","valence rating","html-slider-response","246","532717","0.0-2.0-4.40","r5l2vw7lqxdnfg7","","","","20"
"1495.864999998943","<p>How energetic/arousing was the feeling expressed in this musical clip</p>","","arousal rating","html-slider-response","247","534214","0.0-2.0-5.40","r5l2vw7lqxdnfg7","","","","18"
"null","<div style=""font-size:60px;"">+</div>","null","fixation","html-keyboard-response","248","535220","0.0-2.0-0.41","r5l2vw7lqxdnfg7","","","",""
"null","<div style=""font-size:60px;color:green"">+</div>","null","fixation","html-keyboard-response","249","535724","0.0-2.0-1.41","r5l2vw7lqxdnfg7","","","",""
"null","audio/25_Old_Blacktop_[Album_Version].mp3","null","song","audio-keyboard-response","250","536729","0.0-2.0-2.41","r5l2vw7lqxdnfg7","sad","","",""
"2479.209999999497","","","emotion_rating","survey-multi-choice","251","539209","0.0-2.0-3.41","r5l2vw7lqxdnfg7","","{""Q0"":""Sad""}","[0]",""
"3980.4650000005495","<p>How negative/positive was this feeling expressed in this musical clip</p>","","valence rating","html-slider-response","252","543191","0.0-2.0-4.41","r5l2vw7lqxdnfg7","","","","19"
"2553.1499999997905","<p>How energetic/arousing was the feeling expressed in this musical clip</p>","","arousal rating","html-slider-response","253","545744","0.0-2.0-5.41","r5l2vw7lqxdnfg7","","","","18"
"null","<div style=""font-size:60px;"">+</div>","null","fixation","html-keyboard-response","254","546745","0.0-2.0-0.42","r5l2vw7lqxdnfg7","","","",""
"null","<div style=""font-size:60px;color:green"">+</div>","null","fixation","html-keyboard-response","255","547250","0.0-2.0-1.42","r5l2vw7lqxdnfg7","","","",""
"null","audio/7_Here_Today.mp3","null","song","audio-keyboard-response","256","548255","0.0-2.0-2.42","r5l2vw7lqxdnfg7","sad","","",""
"3001.830000001006","","","emotion_rating","survey-multi-choice","257","551257","0.0-2.0-3.42","r5l2vw7lqxdnfg7","","{""Q0"":""None of these""}","[0]",""
"944.5400000005029","<p>How negative/positive was this feeling expressed in this musical clip</p>","","valence rating","html-slider-response","258","552202","0.0-2.0-4.42","r5l2vw7lqxdnfg7","","","","50"
"573.2449999995297","<p>How energetic/arousing was the feeling expressed in this musical clip</p>","","arousal rating","html-slider-response","259","552776","0.0-2.0-5.42","r5l2vw7lqxdnfg7","","","","50"
"null","<div style=""font-size:60px;"">+</div>","null","fixation","html-keyboard-response","260","553779","0.0-2.0-0.43","r5l2vw7lqxdnfg7","","","",""
"null","<div style=""font-size:60px;color:green"">+</div>","null","fixation","html-keyboard-response","261","554282","0.0-2.0-1.43","r5l2vw7lqxdnfg7","","","",""
"null","audio/9_Pain_(Live_Version).mp3","null","song","audio-keyboard-response","262","555287","0.0-2.0-2.43","r5l2vw7lqxdnfg7","angry","","",""
"2438.6049999993993","","","emotion_rating","survey-multi-choice","263","557726","0.0-2.0-3.43","r5l2vw7lqxdnfg7","","{""Q0"":""Angry""}","[0]",""
"7997.359999999404","<p>How negative/positive was this feeling expressed in this musical clip</p>","","valence rating","html-slider-response","264","565725","0.0-2.0-4.43","r5l2vw7lqxdnfg7","","","","17"
"1956.6100000010338","<p>How energetic/arousing was the feeling expressed in this musical clip</p>","","arousal rating","html-slider-response","265","567682","0.0-2.0-5.43","r5l2vw7lqxdnfg7","","","","81"
"null","<div style=""font-size:60px;"">+</div>","null","fixation","html-keyboard-response","266","568686","0.0-2.0-0.44","r5l2vw7lqxdnfg7","","","",""
"null","<div style=""font-size:60px;color:green"">+</div>","null","fixation","html-keyboard-response","267","569188","0.0-2.0-1.44","r5l2vw7lqxdnfg7","","","",""
"null","audio/2_Love's_Requiem.mp3","null","song","audio-keyboard-response","268","570192","0.0-2.0-2.44","r5l2vw7lqxdnfg7","sad","","",""
"2732.2999999996973","","","emotion_rating","survey-multi-choice","269","572925","0.0-2.0-3.44","r5l2vw7lqxdnfg7","","{""Q0"":""Sad""}","[0]",""
"5365.025000000955","<p>How negative/positive was this feeling expressed in this musical clip</p>","","valence rating","html-slider-response","270","578290","0.0-2.0-4.44","r5l2vw7lqxdnfg7","","","","6"
"3014.844999999623","<p>How energetic/arousing was the feeling expressed in this musical clip</p>","","arousal rating","html-slider-response","271","581306","0.0-2.0-5.44","r5l2vw7lqxdnfg7","","","","11"
