"rt","stimulus","key_press","test_part","trial_type","trial_index","time_elapsed","internal_node_id","subject","target","responses","question_order","response"
"4957.070000004023","Welcome to the experiment. Press any key to begin.","32","welcome","html-keyboard-response","0","4959","0.0-0.0","qd7yfgtyypvrqy3","","","",""
"1559.0650000085589","<p>In this study you will hear a short musical clip and then make some ratings about the emotion it expresses or conveys</p><p>First you will select which emotion you think the musical clip is expressing</p><p>You will then rate how pleasant the feeling expressed in the musical clip was and also how energetic it was</p><p>Press the space bar to begin</p>","32","instruction","html-keyboard-response","1","6519","0.0-1.0","qd7yfgtyypvrqy3","","","",""
"null","<div style=""font-size:60px;"">+</div>","null","fixation","html-keyboard-response","2","7525","0.0-2.0-0.0","qd7yfgtyypvrqy3","","","",""
"null","<div style=""font-size:60px;color:green"">+</div>","null","fixation","html-keyboard-response","3","8031","0.0-2.0-1.0","qd7yfgtyypvrqy3","","","",""
"null","mp3/19_I_hate_Everything_About_You.mp3","null","song","audio-keyboard-response","4","9034","0.0-2.0-2.0","qd7yfgtyypvrqy3","angry","","",""
"2109.469999995781","","","emotion_rating","survey-multi-choice","5","11146","0.0-2.0-3.0","qd7yfgtyypvrqy3","","{""Q0"":""Angry""}","[0]",""
"3772.0900000131223","<p>How negative/positive was this feeling expressed in this musical clip</p>","","valence rating","html-slider-response","6","14920","0.0-2.0-4.0","qd7yfgtyypvrqy3","","","","4"
"2881.2899999902584","<p>How energetic/arousing was the feeling expressed in this musical clip</p>","","arousal rating","html-slider-response","7","17802","0.0-2.0-5.0","qd7yfgtyypvrqy3","","","","100"
"null","<div style=""font-size:60px;"">+</div>","null","fixation","html-keyboard-response","8","18809","0.0-2.0-0.1","qd7yfgtyypvrqy3","","","",""
"null","<div style=""font-size:60px;color:green"">+</div>","null","fixation","html-keyboard-response","9","19315","0.0-2.0-1.1","qd7yfgtyypvrqy3","","","",""
"null","mp3/21_Skank_Down.mp3","null","song","audio-keyboard-response","10","20320","0.0-2.0-2.1","qd7yfgtyypvrqy3","happy","","",""
"2243.259999988368","","","emotion_rating","survey-multi-choice","11","22564","0.0-2.0-3.1","qd7yfgtyypvrqy3","","{""Q0"":""Happy""}","[0]",""
"4742.730000027223","<p>How negative/positive was this feeling expressed in this musical clip</p>","","valence rating","html-slider-response","12","27309","0.0-2.0-4.1","qd7yfgtyypvrqy3","","","","90"
"3409.669999993639","<p>How energetic/arousing was the feeling expressed in this musical clip</p>","","arousal rating","html-slider-response","13","30720","0.0-2.0-5.1","qd7yfgtyypvrqy3","","","","94"
"null","<div style=""font-size:60px;"">+</div>","null","fixation","html-keyboard-response","14","31721","0.0-2.0-0.2","qd7yfgtyypvrqy3","","","",""
"null","<div style=""font-size:60px;color:green"">+</div>","null","fixation","html-keyboard-response","15","32227","0.0-2.0-1.2","qd7yfgtyypvrqy3","","","",""
"null","mp3/3_Walk_on_the_wild_side.mp3","null","song","audio-keyboard-response","16","33233","0.0-2.0-2.2","qd7yfgtyypvrqy3","relaxed","","",""
"2166.495000012219","","","emotion_rating","survey-multi-choice","17","35401","0.0-2.0-3.2","qd7yfgtyypvrqy3","","{""Q0"":""Relaxed""}","[0]",""
"3772.3949999781325","<p>How negative/positive was this feeling expressed in this musical clip</p>","","valence rating","html-slider-response","18","39174","0.0-2.0-4.2","qd7yfgtyypvrqy3","","","","61"
"5226.569999998901","<p>How energetic/arousing was the feeling expressed in this musical clip</p>","","arousal rating","html-slider-response","19","44402","0.0-2.0-5.2","qd7yfgtyypvrqy3","","","","24"
"null","<div style=""font-size:60px;"">+</div>","null","fixation","html-keyboard-response","20","45406","0.0-2.0-0.3","qd7yfgtyypvrqy3","","","",""
"null","<div style=""font-size:60px;color:green"">+</div>","null","fixation","html-keyboard-response","21","45912","0.0-2.0-1.3","qd7yfgtyypvrqy3","","","",""
"null","mp3/24_Restless.mp3","null","song","audio-keyboard-response","22","46919","0.0-2.0-2.3","qd7yfgtyypvrqy3","happy","","",""
"1757.2799999907147","","","emotion_rating","survey-multi-choice","23","48677","0.0-2.0-3.3","qd7yfgtyypvrqy3","","{""Q0"":""Happy""}","[0]",""
"4922.4450000037905","<p>How negative/positive was this feeling expressed in this musical clip</p>","","valence rating","html-slider-response","24","53601","0.0-2.0-4.3","qd7yfgtyypvrqy3","","","","98"
"2749.6249999967404","<p>How energetic/arousing was the feeling expressed in this musical clip</p>","","arousal rating","html-slider-response","25","56352","0.0-2.0-5.3","qd7yfgtyypvrqy3","","","","66"
"null","<div style=""font-size:60px;"">+</div>","null","fixation","html-keyboard-response","26","57358","0.0-2.0-0.4","qd7yfgtyypvrqy3","","","",""
"null","<div style=""font-size:60px;color:green"">+</div>","null","fixation","html-keyboard-response","27","57859","0.0-2.0-1.4","qd7yfgtyypvrqy3","","","",""
"null","mp3/2_Boser_Wolf.mp3","null","song","audio-keyboard-response","28","58864","0.0-2.0-2.4","qd7yfgtyypvrqy3","sad","","",""
"2432.3849999927916","","","emotion_rating","survey-multi-choice","29","61297","0.0-2.0-3.4","qd7yfgtyypvrqy3","","{""Q0"":""Relaxed""}","[0]",""
"22867.995000007795","<p>How negative/positive was this feeling expressed in this musical clip</p>","","valence rating","html-slider-response","30","84167","0.0-2.0-4.4","qd7yfgtyypvrqy3","","","","34"
"3006.034999998519","<p>How energetic/arousing was the feeling expressed in this musical clip</p>","","arousal rating","html-slider-response","31","87175","0.0-2.0-5.4","qd7yfgtyypvrqy3","","","","55"
"null","<div style=""font-size:60px;"">+</div>","null","fixation","html-keyboard-response","32","88179","0.0-2.0-0.5","qd7yfgtyypvrqy3","","","",""
"null","<div style=""font-size:60px;color:green"">+</div>","null","fixation","html-keyboard-response","33","88685","0.0-2.0-1.5","qd7yfgtyypvrqy3","","","",""
"null","mp3/25_Old_Blacktop_[Album_Version].mp3","null","song","audio-keyboard-response","34","89688","0.0-2.0-2.5","qd7yfgtyypvrqy3","sad","","",""
"1571.0649999964517","","","emotion_rating","survey-multi-choice","35","91261","0.0-2.0-3.5","qd7yfgtyypvrqy3","","{""Q0"":""Sad""}","[0]",""
"3560.284999985015","<p>How negative/positive was this feeling expressed in this musical clip</p>","","valence rating","html-slider-response","36","94822","0.0-2.0-4.5","qd7yfgtyypvrqy3","","","","38"
"3317.0999999856576","<p>How energetic/arousing was the feeling expressed in this musical clip</p>","","arousal rating","html-slider-response","37","98141","0.0-2.0-5.5","qd7yfgtyypvrqy3","","","","38"
"null","<div style=""font-size:60px;"">+</div>","null","fixation","html-keyboard-response","38","99143","0.0-2.0-0.6","qd7yfgtyypvrqy3","","","",""
"null","<div style=""font-size:60px;color:green"">+</div>","null","fixation","html-keyboard-response","39","99648","0.0-2.0-1.6","qd7yfgtyypvrqy3","","","",""
"null","mp3/8_Restless.mp3","null","song","audio-keyboard-response","40","100651","0.0-2.0-2.6","qd7yfgtyypvrqy3","happy","","",""
"4012.1000000217464","","","emotion_rating","survey-multi-choice","41","104664","0.0-2.0-3.6","qd7yfgtyypvrqy3","","{""Q0"":""None of these""}","[0]",""
"3029.164999985369","<p>How negative/positive was this feeling expressed in this musical clip</p>","","valence rating","html-slider-response","42","107695","0.0-2.0-4.6","qd7yfgtyypvrqy3","","","","50"
"2817.799999989802","<p>How energetic/arousing was the feeling expressed in this musical clip</p>","","arousal rating","html-slider-response","43","110513","0.0-2.0-5.6","qd7yfgtyypvrqy3","","","","69"
"null","<div style=""font-size:60px;"">+</div>","null","fixation","html-keyboard-response","44","111519","0.0-2.0-0.7","qd7yfgtyypvrqy3","","","",""
"null","<div style=""font-size:60px;color:green"">+</div>","null","fixation","html-keyboard-response","45","112025","0.0-2.0-1.7","qd7yfgtyypvrqy3","","","",""
"null","mp3/13_Boser_Wolf.mp3","null","song","audio-keyboard-response","46","113027","0.0-2.0-2.7","qd7yfgtyypvrqy3","sad","","",""
"2296.505000005709","","","emotion_rating","survey-multi-choice","47","115325","0.0-2.0-3.7","qd7yfgtyypvrqy3","","{""Q0"":""Relaxed""}","[0]",""
"2916.514999989886","<p>How negative/positive was this feeling expressed in this musical clip</p>","","valence rating","html-slider-response","48","118243","0.0-2.0-4.7","qd7yfgtyypvrqy3","","","","51"
"2750.399999989895","<p>How energetic/arousing was the feeling expressed in this musical clip</p>","","arousal rating","html-slider-response","49","120994","0.0-2.0-5.7","qd7yfgtyypvrqy3","","","","29"
"null","<div style=""font-size:60px;"">+</div>","null","fixation","html-keyboard-response","50","121996","0.0-2.0-0.8","qd7yfgtyypvrqy3","","","",""
"null","<div style=""font-size:60px;color:green"">+</div>","null","fixation","html-keyboard-response","51","122500","0.0-2.0-1.8","qd7yfgtyypvrqy3","","","",""
"null","mp3/2_Blood_On_The_Ground.mp3","null","song","audio-keyboard-response","52","123502","0.0-2.0-2.8","qd7yfgtyypvrqy3","angry","","",""
"2064.4800000009127","","","emotion_rating","survey-multi-choice","53","125568","0.0-2.0-3.8","qd7yfgtyypvrqy3","","{""Q0"":""Angry""}","[0]",""
"3564.0149999817368","<p>How negative/positive was this feeling expressed in this musical clip</p>","","valence rating","html-slider-response","54","129133","0.0-2.0-4.8","qd7yfgtyypvrqy3","","","","0"
"5057.06999998074","<p>How energetic/arousing was the feeling expressed in this musical clip</p>","","arousal rating","html-slider-response","55","134192","0.0-2.0-5.8","qd7yfgtyypvrqy3","","","","86"
"null","<div style=""font-size:60px;"">+</div>","null","fixation","html-keyboard-response","56","135194","0.0-2.0-0.9","qd7yfgtyypvrqy3","","","",""
"null","<div style=""font-size:60px;color:green"">+</div>","null","fixation","html-keyboard-response","57","135697","0.0-2.0-1.9","qd7yfgtyypvrqy3","","","",""
"null","mp3/7_Digital.mp3","null","song","audio-keyboard-response","58","136703","0.0-2.0-2.9","qd7yfgtyypvrqy3","relaxed","","",""
"2186.954999982845","","","emotion_rating","survey-multi-choice","59","138891","0.0-2.0-3.9","qd7yfgtyypvrqy3","","{""Q0"":""Sad""}","[0]",""
"2857.564999983879","<p>How negative/positive was this feeling expressed in this musical clip</p>","","valence rating","html-slider-response","60","141749","0.0-2.0-4.9","qd7yfgtyypvrqy3","","","","50"
"2702.605000027688","<p>How energetic/arousing was the feeling expressed in this musical clip</p>","","arousal rating","html-slider-response","61","144453","0.0-2.0-5.9","qd7yfgtyypvrqy3","","","","64"
"null","<div style=""font-size:60px;"">+</div>","null","fixation","html-keyboard-response","62","145458","0.0-2.0-0.10","qd7yfgtyypvrqy3","","","",""
"null","<div style=""font-size:60px;color:green"">+</div>","null","fixation","html-keyboard-response","63","145964","0.0-2.0-1.10","qd7yfgtyypvrqy3","","","",""
"null","mp3/5_Valerie.mp3","null","song","audio-keyboard-response","64","146966","0.0-2.0-2.10","qd7yfgtyypvrqy3","happy","","",""
"1463.3749999920838","","","emotion_rating","survey-multi-choice","65","148432","0.0-2.0-3.10","qd7yfgtyypvrqy3","","{""Q0"":""Happy""}","[0]",""
"5000.565000023926","<p>How negative/positive was this feeling expressed in this musical clip</p>","","valence rating","html-slider-response","66","153434","0.0-2.0-4.10","qd7yfgtyypvrqy3","","","","62"
"3619.780000008177","<p>How energetic/arousing was the feeling expressed in this musical clip</p>","","arousal rating","html-slider-response","67","157055","0.0-2.0-5.10","qd7yfgtyypvrqy3","","","","80"
"null","<div style=""font-size:60px;"">+</div>","null","fixation","html-keyboard-response","68","158057","0.0-2.0-0.11","qd7yfgtyypvrqy3","","","",""
"null","<div style=""font-size:60px;color:green"">+</div>","null","fixation","html-keyboard-response","69","158563","0.0-2.0-1.11","qd7yfgtyypvrqy3","","","",""
"null","mp3/4_Destiny.mp3","null","song","audio-keyboard-response","70","159569","0.0-2.0-2.11","qd7yfgtyypvrqy3","relaxed","","",""
"3063.865000003716","","","emotion_rating","survey-multi-choice","71","162634","0.0-2.0-3.11","qd7yfgtyypvrqy3","","{""Q0"":""None of these""}","[0]",""
"12622.159999998985","<p>How negative/positive was this feeling expressed in this musical clip</p>","","valence rating","html-slider-response","72","175258","0.0-2.0-4.11","qd7yfgtyypvrqy3","","","","42"
"2513.890000001993","<p>How energetic/arousing was the feeling expressed in this musical clip</p>","","arousal rating","html-slider-response","73","177773","0.0-2.0-5.11","qd7yfgtyypvrqy3","","","","67"
"null","<div style=""font-size:60px;"">+</div>","null","fixation","html-keyboard-response","74","178779","0.0-2.0-0.12","qd7yfgtyypvrqy3","","","",""
"null","<div style=""font-size:60px;color:green"">+</div>","null","fixation","html-keyboard-response","75","179281","0.0-2.0-1.12","qd7yfgtyypvrqy3","","","",""
"null","mp3/12_Fire_And_Rain_(LP_Version).mp3","null","song","audio-keyboard-response","76","180287","0.0-2.0-2.12","qd7yfgtyypvrqy3","sad","","",""
"3143.4249999874737","","","emotion_rating","survey-multi-choice","77","183431","0.0-2.0-3.12","qd7yfgtyypvrqy3","","{""Q0"":""Relaxed""}","[0]",""
"3638.8300000107847","<p>How negative/positive was this feeling expressed in this musical clip</p>","","valence rating","html-slider-response","78","187071","0.0-2.0-4.12","qd7yfgtyypvrqy3","","","","44"
"7619.475000014063","<p>How energetic/arousing was the feeling expressed in this musical clip</p>","","arousal rating","html-slider-response","79","194692","0.0-2.0-5.12","qd7yfgtyypvrqy3","","","","19"
"null","<div style=""font-size:60px;"">+</div>","null","fixation","html-keyboard-response","80","195696","0.0-2.0-0.13","qd7yfgtyypvrqy3","","","",""
"null","<div style=""font-size:60px;color:green"">+</div>","null","fixation","html-keyboard-response","81","196202","0.0-2.0-1.13","qd7yfgtyypvrqy3","","","",""
"null","mp3/2_On_A_Slow_Boat_To_China.mp3","null","song","audio-keyboard-response","82","197208","0.0-2.0-2.13","qd7yfgtyypvrqy3","relaxed","","",""
"2130.4649999947287","","","emotion_rating","survey-multi-choice","83","199340","0.0-2.0-3.13","qd7yfgtyypvrqy3","","{""Q0"":""Happy""}","[0]",""
"3203.6450000014156","<p>How negative/positive was this feeling expressed in this musical clip</p>","","valence rating","html-slider-response","84","202545","0.0-2.0-4.13","qd7yfgtyypvrqy3","","","","82"
"2837.0999999751803","<p>How energetic/arousing was the feeling expressed in this musical clip</p>","","arousal rating","html-slider-response","85","205384","0.0-2.0-5.13","qd7yfgtyypvrqy3","","","","19"
"null","<div style=""font-size:60px;"">+</div>","null","fixation","html-keyboard-response","86","206386","0.0-2.0-0.14","qd7yfgtyypvrqy3","","","",""
"null","<div style=""font-size:60px;color:green"">+</div>","null","fixation","html-keyboard-response","87","206890","0.0-2.0-1.14","qd7yfgtyypvrqy3","","","",""
"null","mp3/5_Love's_Requiem.mp3","null","song","audio-keyboard-response","88","207894","0.0-2.0-2.14","qd7yfgtyypvrqy3","sad","","",""
"1730.2349999954458","","","emotion_rating","survey-multi-choice","89","209625","0.0-2.0-3.14","qd7yfgtyypvrqy3","","{""Q0"":""Sad""}","[0]",""
"3651.1850000242703","<p>How negative/positive was this feeling expressed in this musical clip</p>","","valence rating","html-slider-response","90","213278","0.0-2.0-4.14","qd7yfgtyypvrqy3","","","","19"
"5096.7299999902025","<p>How energetic/arousing was the feeling expressed in this musical clip</p>","","arousal rating","html-slider-response","91","218376","0.0-2.0-5.14","qd7yfgtyypvrqy3","","","","16"
"null","<div style=""font-size:60px;"">+</div>","null","fixation","html-keyboard-response","92","219379","0.0-2.0-0.15","qd7yfgtyypvrqy3","","","",""
"null","<div style=""font-size:60px;color:green"">+</div>","null","fixation","html-keyboard-response","93","219884","0.0-2.0-1.15","qd7yfgtyypvrqy3","","","",""
"null","mp3/16_Restless.mp3","null","song","audio-keyboard-response","94","220890","0.0-2.0-2.15","qd7yfgtyypvrqy3","happy","","",""
"2890.7250000047497","","","emotion_rating","survey-multi-choice","95","223782","0.0-2.0-3.15","qd7yfgtyypvrqy3","","{""Q0"":""Angry""}","[0]",""
"19253.17000001087","<p>How negative/positive was this feeling expressed in this musical clip</p>","","valence rating","html-slider-response","96","243037","0.0-2.0-4.15","qd7yfgtyypvrqy3","","","","40"
"3611.464999994496","<p>How energetic/arousing was the feeling expressed in this musical clip</p>","","arousal rating","html-slider-response","97","246650","0.0-2.0-5.15","qd7yfgtyypvrqy3","","","","89"
"null","<div style=""font-size:60px;"">+</div>","null","fixation","html-keyboard-response","98","247656","0.0-2.0-0.16","qd7yfgtyypvrqy3","","","",""
"null","<div style=""font-size:60px;color:green"">+</div>","null","fixation","html-keyboard-response","99","248162","0.0-2.0-1.16","qd7yfgtyypvrqy3","","","",""
"null","mp3/12_Skinny_Love.mp3","null","song","audio-keyboard-response","100","249165","0.0-2.0-2.16","qd7yfgtyypvrqy3","sad","","",""
"2069.054999999935","","","emotion_rating","survey-multi-choice","101","251235","0.0-2.0-3.16","qd7yfgtyypvrqy3","","{""Q0"":""Sad""}","[0]",""
"2468.7249999842606","<p>How negative/positive was this feeling expressed in this musical clip</p>","","valence rating","html-slider-response","102","253705","0.0-2.0-4.16","qd7yfgtyypvrqy3","","","","7"
"1540.8400000014808","<p>How energetic/arousing was the feeling expressed in this musical clip</p>","","arousal rating","html-slider-response","103","255247","0.0-2.0-5.16","qd7yfgtyypvrqy3","","","","16"
"null","<div style=""font-size:60px;"">+</div>","null","fixation","html-keyboard-response","104","256253","0.0-2.0-0.17","qd7yfgtyypvrqy3","","","",""
"null","<div style=""font-size:60px;color:green"">+</div>","null","fixation","html-keyboard-response","105","256759","0.0-2.0-1.17","qd7yfgtyypvrqy3","","","",""
"null","mp3/3_Old_Blacktop_[Album_Version].mp3","null","song","audio-keyboard-response","106","257764","0.0-2.0-2.17","qd7yfgtyypvrqy3","sad","","",""
"2157.2599999781232","","","emotion_rating","survey-multi-choice","107","259922","0.0-2.0-3.17","qd7yfgtyypvrqy3","","{""Q0"":""Relaxed""}","[0]",""
"4014.259999996284","<p>How negative/positive was this feeling expressed in this musical clip</p>","","valence rating","html-slider-response","108","263938","0.0-2.0-4.17","qd7yfgtyypvrqy3","","","","39"
"5407.91999999783","<p>How energetic/arousing was the feeling expressed in this musical clip</p>","","arousal rating","html-slider-response","109","269347","0.0-2.0-5.17","qd7yfgtyypvrqy3","","","","22"
"null","<div style=""font-size:60px;"">+</div>","null","fixation","html-keyboard-response","110","270348","0.0-2.0-0.18","qd7yfgtyypvrqy3","","","",""
"null","<div style=""font-size:60px;color:green"">+</div>","null","fixation","html-keyboard-response","111","270854","0.0-2.0-1.18","qd7yfgtyypvrqy3","","","",""
"null","mp3/12_Skank_Down.mp3","null","song","audio-keyboard-response","112","271861","0.0-2.0-2.18","qd7yfgtyypvrqy3","happy","","",""
"1484.759999992093","","","emotion_rating","survey-multi-choice","113","273347","0.0-2.0-3.18","qd7yfgtyypvrqy3","","{""Q0"":""Happy""}","[0]",""
"5147.989999997662","<p>How negative/positive was this feeling expressed in this musical clip</p>","","valence rating","html-slider-response","114","278496","0.0-2.0-4.18","qd7yfgtyypvrqy3","","","","98"
"1970.4899999778718","<p>How energetic/arousing was the feeling expressed in this musical clip</p>","","arousal rating","html-slider-response","115","280468","0.0-2.0-5.18","qd7yfgtyypvrqy3","","","","93"
"null","<div style=""font-size:60px;"">+</div>","null","fixation","html-keyboard-response","116","281471","0.0-2.0-0.19","qd7yfgtyypvrqy3","","","",""
"null","<div style=""font-size:60px;color:green"">+</div>","null","fixation","html-keyboard-response","117","281977","0.0-2.0-1.19","qd7yfgtyypvrqy3","","","",""
"null","mp3/14_Get_Lucky.mp3","null","song","audio-keyboard-response","118","282982","0.0-2.0-2.19","qd7yfgtyypvrqy3","happy","","",""
"1573.6500000057276","","","emotion_rating","survey-multi-choice","119","284557","0.0-2.0-3.19","qd7yfgtyypvrqy3","","{""Q0"":""Happy""}","[0]",""
"2457.68500000122","<p>How negative/positive was this feeling expressed in this musical clip</p>","","valence rating","html-slider-response","120","287016","0.0-2.0-4.19","qd7yfgtyypvrqy3","","","","97"
"3507.499999977881","<p>How energetic/arousing was the feeling expressed in this musical clip</p>","","arousal rating","html-slider-response","121","290525","0.0-2.0-5.19","qd7yfgtyypvrqy3","","","","75"
"null","<div style=""font-size:60px;"">+</div>","null","fixation","html-keyboard-response","122","291529","0.0-2.0-0.20","qd7yfgtyypvrqy3","","","",""
"null","<div style=""font-size:60px;color:green"">+</div>","null","fixation","html-keyboard-response","123","292035","0.0-2.0-1.20","qd7yfgtyypvrqy3","","","",""
"null","mp3/5_Get_Lucky.mp3","null","song","audio-keyboard-response","124","293037","0.0-2.0-2.20","qd7yfgtyypvrqy3","happy","","",""
"1434.7950000083074","","","emotion_rating","survey-multi-choice","125","294473","0.0-2.0-3.20","qd7yfgtyypvrqy3","","{""Q0"":""Happy""}","[0]",""
"1922.5299999816343","<p>How negative/positive was this feeling expressed in this musical clip</p>","","valence rating","html-slider-response","126","296397","0.0-2.0-4.20","qd7yfgtyypvrqy3","","","","100"
"3882.8400000056718","<p>How energetic/arousing was the feeling expressed in this musical clip</p>","","arousal rating","html-slider-response","127","300281","0.0-2.0-5.20","qd7yfgtyypvrqy3","","","","67"
"null","<div style=""font-size:60px;"">+</div>","null","fixation","html-keyboard-response","128","301287","0.0-2.0-0.21","qd7yfgtyypvrqy3","","","",""
"null","<div style=""font-size:60px;color:green"">+</div>","null","fixation","html-keyboard-response","129","301791","0.0-2.0-1.21","qd7yfgtyypvrqy3","","","",""
"null","mp3/7_Here_Today.mp3","null","song","audio-keyboard-response","130","302797","0.0-2.0-2.21","qd7yfgtyypvrqy3","relaxed","","",""
"4200.650000013411","","","emotion_rating","survey-multi-choice","131","306999","0.0-2.0-3.21","qd7yfgtyypvrqy3","","{""Q0"":""Sad""}","[0]",""
"3363.855000003241","<p>How negative/positive was this feeling expressed in this musical clip</p>","","valence rating","html-slider-response","132","310364","0.0-2.0-4.21","qd7yfgtyypvrqy3","","","","37"
"2066.820000007283","<p>How energetic/arousing was the feeling expressed in this musical clip</p>","","arousal rating","html-slider-response","133","312431","0.0-2.0-5.21","qd7yfgtyypvrqy3","","","","0"
"null","<div style=""font-size:60px;"">+</div>","null","fixation","html-keyboard-response","134","313437","0.0-2.0-0.22","qd7yfgtyypvrqy3","","","",""
"null","<div style=""font-size:60px;color:green"">+</div>","null","fixation","html-keyboard-response","135","313943","0.0-2.0-1.22","qd7yfgtyypvrqy3","","","",""
"null","mp3/26_It_Only_Hurts_When_I'm_Breathing.mp3","null","song","audio-keyboard-response","136","314949","0.0-2.0-2.22","qd7yfgtyypvrqy3","sad","","",""
"3321.200000005774","","","emotion_rating","survey-multi-choice","137","318273","0.0-2.0-3.22","qd7yfgtyypvrqy3","","{""Q0"":""Sad""}","[0]",""
"4166.410000005271","<p>How negative/positive was this feeling expressed in this musical clip</p>","","valence rating","html-slider-response","138","322441","0.0-2.0-4.22","qd7yfgtyypvrqy3","","","","29"
"1579.444999981206","<p>How energetic/arousing was the feeling expressed in this musical clip</p>","","arousal rating","html-slider-response","139","324021","0.0-2.0-5.22","qd7yfgtyypvrqy3","","","","72"
"null","<div style=""font-size:60px;"">+</div>","null","fixation","html-keyboard-response","140","325028","0.0-2.0-0.23","qd7yfgtyypvrqy3","","","",""
"null","<div style=""font-size:60px;color:green"">+</div>","null","fixation","html-keyboard-response","141","325533","0.0-2.0-1.23","qd7yfgtyypvrqy3","","","",""
"null","mp3/4_Make_Light.mp3","null","song","audio-keyboard-response","142","326538","0.0-2.0-2.23","qd7yfgtyypvrqy3","happy","","",""
"1977.1949999849312","","","emotion_rating","survey-multi-choice","143","328516","0.0-2.0-3.23","qd7yfgtyypvrqy3","","{""Q0"":""Happy""}","[0]",""
"2373.760000016773","<p>How negative/positive was this feeling expressed in this musical clip</p>","","valence rating","html-slider-response","144","330891","0.0-2.0-4.23","qd7yfgtyypvrqy3","","","","69"
"3001.060000009602","<p>How energetic/arousing was the feeling expressed in this musical clip</p>","","arousal rating","html-slider-response","145","333893","0.0-2.0-5.23","qd7yfgtyypvrqy3","","","","76"
"null","<div style=""font-size:60px;"">+</div>","null","fixation","html-keyboard-response","146","334898","0.0-2.0-0.24","qd7yfgtyypvrqy3","","","",""
"null","<div style=""font-size:60px;color:green"">+</div>","null","fixation","html-keyboard-response","147","335404","0.0-2.0-1.24","qd7yfgtyypvrqy3","","","",""
"null","mp3/4_Come_On_Baby.mp3","null","song","audio-keyboard-response","148","336406","0.0-2.0-2.24","qd7yfgtyypvrqy3","relaxed","","",""
"1526.7349999921862","","","emotion_rating","survey-multi-choice","149","337935","0.0-2.0-3.24","qd7yfgtyypvrqy3","","{""Q0"":""Sad""}","[0]",""
"3985.6800000125077","<p>How negative/positive was this feeling expressed in this musical clip</p>","","valence rating","html-slider-response","150","341922","0.0-2.0-4.24","qd7yfgtyypvrqy3","","","","15"
"3267.1600000176113","<p>How energetic/arousing was the feeling expressed in this musical clip</p>","","arousal rating","html-slider-response","151","345191","0.0-2.0-5.24","qd7yfgtyypvrqy3","","","","60"
"null","<div style=""font-size:60px;"">+</div>","null","fixation","html-keyboard-response","152","346196","0.0-2.0-0.25","qd7yfgtyypvrqy3","","","",""
"null","<div style=""font-size:60px;color:green"">+</div>","null","fixation","html-keyboard-response","153","346699","0.0-2.0-1.25","qd7yfgtyypvrqy3","","","",""
"null","mp3/23_Inside.mp3","null","song","audio-keyboard-response","154","347704","0.0-2.0-2.25","qd7yfgtyypvrqy3","sad","","",""
"2409.029999980703","","","emotion_rating","survey-multi-choice","155","350114","0.0-2.0-3.25","qd7yfgtyypvrqy3","","{""Q0"":""Sad""}","[0]",""
"25246.96000001859","<p>How negative/positive was this feeling expressed in this musical clip</p>","","valence rating","html-slider-response","156","375363","0.0-2.0-4.25","qd7yfgtyypvrqy3","","","","38"
"2573.080000001937","<p>How energetic/arousing was the feeling expressed in this musical clip</p>","","arousal rating","html-slider-response","157","377938","0.0-2.0-5.25","qd7yfgtyypvrqy3","","","","57"
"null","<div style=""font-size:60px;"">+</div>","null","fixation","html-keyboard-response","158","378942","0.0-2.0-0.26","qd7yfgtyypvrqy3","","","",""
"null","<div style=""font-size:60px;color:green"">+</div>","null","fixation","html-keyboard-response","159","379447","0.0-2.0-1.26","qd7yfgtyypvrqy3","","","",""
"null","mp3/2_Love's_Requiem.mp3","null","song","audio-keyboard-response","160","380452","0.0-2.0-2.26","qd7yfgtyypvrqy3","sad","","",""
"1805.9149999753572","","","emotion_rating","survey-multi-choice","161","382259","0.0-2.0-3.26","qd7yfgtyypvrqy3","","{""Q0"":""Sad""}","[0]",""
"2995.454999996582","<p>How negative/positive was this feeling expressed in this musical clip</p>","","valence rating","html-slider-response","162","385255","0.0-2.0-4.26","qd7yfgtyypvrqy3","","","","1"
"4336.74999998766","<p>How energetic/arousing was the feeling expressed in this musical clip</p>","","arousal rating","html-slider-response","163","389593","0.0-2.0-5.26","qd7yfgtyypvrqy3","","","","43"
"null","<div style=""font-size:60px;"">+</div>","null","fixation","html-keyboard-response","164","390599","0.0-2.0-0.27","qd7yfgtyypvrqy3","","","",""
"null","<div style=""font-size:60px;color:green"">+</div>","null","fixation","html-keyboard-response","165","391105","0.0-2.0-1.27","qd7yfgtyypvrqy3","","","",""
"null","mp3/28_Valerie.mp3","null","song","audio-keyboard-response","166","392106","0.0-2.0-2.27","qd7yfgtyypvrqy3","happy","","",""
"3258.6299999966286","","","emotion_rating","survey-multi-choice","167","395367","0.0-2.0-3.27","qd7yfgtyypvrqy3","","{""Q0"":""Happy""}","[0]",""
"2813.159999990603","<p>How negative/positive was this feeling expressed in this musical clip</p>","","valence rating","html-slider-response","168","398181","0.0-2.0-4.27","qd7yfgtyypvrqy3","","","","85"
"5063.3749999979045","<p>How energetic/arousing was the feeling expressed in this musical clip</p>","","arousal rating","html-slider-response","169","403246","0.0-2.0-5.27","qd7yfgtyypvrqy3","","","","83"
"null","<div style=""font-size:60px;"">+</div>","null","fixation","html-keyboard-response","170","404252","0.0-2.0-0.28","qd7yfgtyypvrqy3","","","",""
"null","<div style=""font-size:60px;color:green"">+</div>","null","fixation","html-keyboard-response","171","404758","0.0-2.0-1.28","qd7yfgtyypvrqy3","","","",""
"null","mp3/11_Be_Happy.mp3","null","song","audio-keyboard-response","172","405764","0.0-2.0-2.28","qd7yfgtyypvrqy3","happy","","",""
"2199.7649999975692","","","emotion_rating","survey-multi-choice","173","407965","0.0-2.0-3.28","qd7yfgtyypvrqy3","","{""Q0"":""Sad""}","[0]",""
"3072.3850000067614","<p>How negative/positive was this feeling expressed in this musical clip</p>","","valence rating","html-slider-response","174","411039","0.0-2.0-4.28","qd7yfgtyypvrqy3","","","","31"
"2165.689999994356","<p>How energetic/arousing was the feeling expressed in this musical clip</p>","","arousal rating","html-slider-response","175","413206","0.0-2.0-5.28","qd7yfgtyypvrqy3","","","","90"
"null","<div style=""font-size:60px;"">+</div>","null","fixation","html-keyboard-response","176","414212","0.0-2.0-0.29","qd7yfgtyypvrqy3","","","",""
"null","<div style=""font-size:60px;color:green"">+</div>","null","fixation","html-keyboard-response","177","414718","0.0-2.0-1.29","qd7yfgtyypvrqy3","","","",""
"null","mp3/1_The_Sweetest.mp3","null","song","audio-keyboard-response","178","415720","0.0-2.0-2.29","qd7yfgtyypvrqy3","relaxed","","",""
"1916.895000002114","","","emotion_rating","survey-multi-choice","179","417638","0.0-2.0-3.29","qd7yfgtyypvrqy3","","{""Q0"":""Relaxed""}","[0]",""
"1675.3800000005867","<p>How negative/positive was this feeling expressed in this musical clip</p>","","valence rating","html-slider-response","180","419314","0.0-2.0-4.29","qd7yfgtyypvrqy3","","","","50"
"3982.2649999987334","<p>How energetic/arousing was the feeling expressed in this musical clip</p>","","arousal rating","html-slider-response","181","423298","0.0-2.0-5.29","qd7yfgtyypvrqy3","","","","39"
"null","<div style=""font-size:60px;"">+</div>","null","fixation","html-keyboard-response","182","424304","0.0-2.0-0.30","qd7yfgtyypvrqy3","","","",""
"null","<div style=""font-size:60px;color:green"">+</div>","null","fixation","html-keyboard-response","183","424809","0.0-2.0-1.30","qd7yfgtyypvrqy3","","","",""
"null","mp3/4_Mbube.mp3","null","song","audio-keyboard-response","184","425810","0.0-2.0-2.30","qd7yfgtyypvrqy3","happy","","",""
"2628.515000018524","","","emotion_rating","survey-multi-choice","185","428441","0.0-2.0-3.30","qd7yfgtyypvrqy3","","{""Q0"":""Happy""}","[0]",""
"5198.715000005905","<p>How negative/positive was this feeling expressed in this musical clip</p>","","valence rating","html-slider-response","186","433641","0.0-2.0-4.30","qd7yfgtyypvrqy3","","","","73"
"3459.0449999959674","<p>How energetic/arousing was the feeling expressed in this musical clip</p>","","arousal rating","html-slider-response","187","437102","0.0-2.0-5.30","qd7yfgtyypvrqy3","","","","65"
"null","<div style=""font-size:60px;"">+</div>","null","fixation","html-keyboard-response","188","438108","0.0-2.0-0.31","qd7yfgtyypvrqy3","","","",""
"null","<div style=""font-size:60px;color:green"">+</div>","null","fixation","html-keyboard-response","189","438610","0.0-2.0-1.31","qd7yfgtyypvrqy3","","","",""
"null","mp3/1_Skinny_Love.mp3","null","song","audio-keyboard-response","190","439612","0.0-2.0-2.31","qd7yfgtyypvrqy3","sad","","",""
"1857.915000000503","","","emotion_rating","survey-multi-choice","191","441471","0.0-2.0-3.31","qd7yfgtyypvrqy3","","{""Q0"":""Sad""}","[0]",""
"2113.100000016857","<p>How negative/positive was this feeling expressed in this musical clip</p>","","valence rating","html-slider-response","192","443585","0.0-2.0-4.31","qd7yfgtyypvrqy3","","","","21"
"3602.0550000248477","<p>How energetic/arousing was the feeling expressed in this musical clip</p>","","arousal rating","html-slider-response","193","447189","0.0-2.0-5.31","qd7yfgtyypvrqy3","","","","4"
"null","<div style=""font-size:60px;"">+</div>","null","fixation","html-keyboard-response","194","448195","0.0-2.0-0.32","qd7yfgtyypvrqy3","","","",""
"null","<div style=""font-size:60px;color:green"">+</div>","null","fixation","html-keyboard-response","195","448697","0.0-2.0-1.32","qd7yfgtyypvrqy3","","","",""
"null","mp3/9_Pain_(Live_Version).mp3","null","song","audio-keyboard-response","196","449698","0.0-2.0-2.32","qd7yfgtyypvrqy3","angry","","",""
"2002.0199999853503","","","emotion_rating","survey-multi-choice","197","451701","0.0-2.0-3.32","qd7yfgtyypvrqy3","","{""Q0"":""Angry""}","[0]",""
"2190.340000001015","<p>How negative/positive was this feeling expressed in this musical clip</p>","","valence rating","html-slider-response","198","453892","0.0-2.0-4.32","qd7yfgtyypvrqy3","","","","0"
"2393.544999998994","<p>How energetic/arousing was the feeling expressed in this musical clip</p>","","arousal rating","html-slider-response","199","456287","0.0-2.0-5.32","qd7yfgtyypvrqy3","","","","95"
"null","<div style=""font-size:60px;"">+</div>","null","fixation","html-keyboard-response","200","457289","0.0-2.0-0.33","qd7yfgtyypvrqy3","","","",""
"null","<div style=""font-size:60px;color:green"">+</div>","null","fixation","html-keyboard-response","201","457794","0.0-2.0-1.33","qd7yfgtyypvrqy3","","","",""
"null","mp3/13_Motown_Junk.mp3","null","song","audio-keyboard-response","202","458796","0.0-2.0-2.33","qd7yfgtyypvrqy3","angry","","",""
"1938.0950000195298","","","emotion_rating","survey-multi-choice","203","460736","0.0-2.0-3.33","qd7yfgtyypvrqy3","","{""Q0"":""Sad""}","[0]",""
"5757.660000002943","<p>How negative/positive was this feeling expressed in this musical clip</p>","","valence rating","html-slider-response","204","466495","0.0-2.0-4.33","qd7yfgtyypvrqy3","","","","23"
"2070.0599999981932","<p>How energetic/arousing was the feeling expressed in this musical clip</p>","","arousal rating","html-slider-response","205","468566","0.0-2.0-5.33","qd7yfgtyypvrqy3","","","","100"
"null","<div style=""font-size:60px;"">+</div>","null","fixation","html-keyboard-response","206","469572","0.0-2.0-0.34","qd7yfgtyypvrqy3","","","",""
"null","<div style=""font-size:60px;color:green"">+</div>","null","fixation","html-keyboard-response","207","470078","0.0-2.0-1.34","qd7yfgtyypvrqy3","","","",""
"null","mp3/3_It_Only_Hurts_When_I'm_Breathing.mp3","null","song","audio-keyboard-response","208","471084","0.0-2.0-2.34","qd7yfgtyypvrqy3","sad","","",""
"1415.7299999787938","","","emotion_rating","survey-multi-choice","209","472501","0.0-2.0-3.34","qd7yfgtyypvrqy3","","{""Q0"":""Sad""}","[0]",""
"3698.065000004135","<p>How negative/positive was this feeling expressed in this musical clip</p>","","valence rating","html-slider-response","210","476200","0.0-2.0-4.34","qd7yfgtyypvrqy3","","","","24"
"2680.9200000134297","<p>How energetic/arousing was the feeling expressed in this musical clip</p>","","arousal rating","html-slider-response","211","478882","0.0-2.0-5.34","qd7yfgtyypvrqy3","","","","80"
"null","<div style=""font-size:60px;"">+</div>","null","fixation","html-keyboard-response","212","479887","0.0-2.0-0.35","qd7yfgtyypvrqy3","","","",""
"null","<div style=""font-size:60px;color:green"">+</div>","null","fixation","html-keyboard-response","213","480392","0.0-2.0-1.35","qd7yfgtyypvrqy3","","","",""
"null","mp3/15_Bunkertor_7_(German_Texture).mp3","null","song","audio-keyboard-response","214","481394","0.0-2.0-2.35","qd7yfgtyypvrqy3","angry","","",""
"1711.5349999803584","","","emotion_rating","survey-multi-choice","215","483107","0.0-2.0-3.35","qd7yfgtyypvrqy3","","{""Q0"":""Angry""}","[0]",""
"2412.3900000122376","<p>How negative/positive was this feeling expressed in this musical clip</p>","","valence rating","html-slider-response","216","485522","0.0-2.0-4.35","qd7yfgtyypvrqy3","","","","0"
"1666.8200000131037","<p>How energetic/arousing was the feeling expressed in this musical clip</p>","","arousal rating","html-slider-response","217","487190","0.0-2.0-5.35","qd7yfgtyypvrqy3","","","","100"
"null","<div style=""font-size:60px;"">+</div>","null","fixation","html-keyboard-response","218","488194","0.0-2.0-0.36","qd7yfgtyypvrqy3","","","",""
"null","<div style=""font-size:60px;color:green"">+</div>","null","fixation","html-keyboard-response","219","488700","0.0-2.0-1.36","qd7yfgtyypvrqy3","","","",""
"null","mp3/15_Here_Today.mp3","null","song","audio-keyboard-response","220","489706","0.0-2.0-2.36","qd7yfgtyypvrqy3","sad","","",""
"1705.7400000048801","","","emotion_rating","survey-multi-choice","221","491415","0.0-2.0-3.36","qd7yfgtyypvrqy3","","{""Q0"":""Sad""}","[0]",""
"2492.7299999981187","<p>How negative/positive was this feeling expressed in this musical clip</p>","","valence rating","html-slider-response","222","493909","0.0-2.0-4.36","qd7yfgtyypvrqy3","","","","27"
"2400.8500000054482","<p>How energetic/arousing was the feeling expressed in this musical clip</p>","","arousal rating","html-slider-response","223","496311","0.0-2.0-5.36","qd7yfgtyypvrqy3","","","","0"
"null","<div style=""font-size:60px;"">+</div>","null","fixation","html-keyboard-response","224","497317","0.0-2.0-0.37","qd7yfgtyypvrqy3","","","",""
"null","<div style=""font-size:60px;color:green"">+</div>","null","fixation","html-keyboard-response","225","497818","0.0-2.0-1.37","qd7yfgtyypvrqy3","","","",""
"null","mp3/1_Be_Happy.mp3","null","song","audio-keyboard-response","226","498824","0.0-2.0-2.37","qd7yfgtyypvrqy3","happy","","",""
"5516.804999992019","","","emotion_rating","survey-multi-choice","227","504341","0.0-2.0-3.37","qd7yfgtyypvrqy3","","{""Q0"":""None of these""}","[0]",""
"4153.200000000652","<p>How negative/positive was this feeling expressed in this musical clip</p>","","valence rating","html-slider-response","228","508496","0.0-2.0-4.37","qd7yfgtyypvrqy3","","","","47"
"2889.324999996461","<p>How energetic/arousing was the feeling expressed in this musical clip</p>","","arousal rating","html-slider-response","229","511386","0.0-2.0-5.37","qd7yfgtyypvrqy3","","","","65"
"null","<div style=""font-size:60px;"">+</div>","null","fixation","html-keyboard-response","230","512391","0.0-2.0-0.38","qd7yfgtyypvrqy3","","","",""
"null","<div style=""font-size:60px;color:green"">+</div>","null","fixation","html-keyboard-response","231","512895","0.0-2.0-1.38","qd7yfgtyypvrqy3","","","",""
"null","mp3/8_Fire_And_Rain__(LP_Version).mp3","null","song","audio-keyboard-response","232","513900","0.0-2.0-2.38","qd7yfgtyypvrqy3","sad","","",""
"1831.4350000000559","","","emotion_rating","survey-multi-choice","233","515733","0.0-2.0-3.38","qd7yfgtyypvrqy3","","{""Q0"":""Sad""}","[0]",""
"2906.74500001478","<p>How negative/positive was this feeling expressed in this musical clip</p>","","valence rating","html-slider-response","234","518641","0.0-2.0-4.38","qd7yfgtyypvrqy3","","","","28"
"2074.9399999913294","<p>How energetic/arousing was the feeling expressed in this musical clip</p>","","arousal rating","html-slider-response","235","520717","0.0-2.0-5.38","qd7yfgtyypvrqy3","","","","62"
"null","<div style=""font-size:60px;"">+</div>","null","fixation","html-keyboard-response","236","521723","0.0-2.0-0.39","qd7yfgtyypvrqy3","","","",""
"null","<div style=""font-size:60px;color:green"">+</div>","null","fixation","html-keyboard-response","237","522224","0.0-2.0-1.39","qd7yfgtyypvrqy3","","","",""
"null","mp3/2_Sweet_Song.mp3","null","song","audio-keyboard-response","238","523225","0.0-2.0-2.39","qd7yfgtyypvrqy3","relaxed","","",""
"4052.4199999927077","","","emotion_rating","survey-multi-choice","239","527279","0.0-2.0-3.39","qd7yfgtyypvrqy3","","{""Q0"":""Relaxed""}","[0]",""
"2637.5849999894854","<p>How negative/positive was this feeling expressed in this musical clip</p>","","valence rating","html-slider-response","240","529918","0.0-2.0-4.39","qd7yfgtyypvrqy3","","","","41"
"1450.7799999846611","<p>How energetic/arousing was the feeling expressed in this musical clip</p>","","arousal rating","html-slider-response","241","531370","0.0-2.0-5.39","qd7yfgtyypvrqy3","","","","23"
"null","<div style=""font-size:60px;"">+</div>","null","fixation","html-keyboard-response","242","532376","0.0-2.0-0.40","qd7yfgtyypvrqy3","","","",""
"null","<div style=""font-size:60px;color:green"">+</div>","null","fixation","html-keyboard-response","243","532882","0.0-2.0-1.40","qd7yfgtyypvrqy3","","","",""
"null","mp3/2_Inside.mp3","null","song","audio-keyboard-response","244","533883","0.0-2.0-2.40","qd7yfgtyypvrqy3","sad","","",""
"1568.8999999838416","","","emotion_rating","survey-multi-choice","245","535453","0.0-2.0-3.40","qd7yfgtyypvrqy3","","{""Q0"":""Sad""}","[0]",""
"3881.774999987101","<p>How negative/positive was this feeling expressed in this musical clip</p>","","valence rating","html-slider-response","246","539336","0.0-2.0-4.40","qd7yfgtyypvrqy3","","","","44"
"2201.829999976326","<p>How energetic/arousing was the feeling expressed in this musical clip</p>","","arousal rating","html-slider-response","247","541538","0.0-2.0-5.40","qd7yfgtyypvrqy3","","","","66"
"null","<div style=""font-size:60px;"">+</div>","null","fixation","html-keyboard-response","248","542544","0.0-2.0-0.41","qd7yfgtyypvrqy3","","","",""
"null","<div style=""font-size:60px;color:green"">+</div>","null","fixation","html-keyboard-response","249","543050","0.0-2.0-1.41","qd7yfgtyypvrqy3","","","",""
"null","mp3/26_Make_Light.mp3","null","song","audio-keyboard-response","250","544053","0.0-2.0-2.41","qd7yfgtyypvrqy3","happy","","",""
"4501.170000003185","","","emotion_rating","survey-multi-choice","251","548555","0.0-2.0-3.41","qd7yfgtyypvrqy3","","{""Q0"":""None of these""}","[0]",""
"3008.414999989327","<p>How negative/positive was this feeling expressed in this musical clip</p>","","valence rating","html-slider-response","252","551564","0.0-2.0-4.41","qd7yfgtyypvrqy3","","","","39"
"1650.5250000045635","<p>How energetic/arousing was the feeling expressed in this musical clip</p>","","arousal rating","html-slider-response","253","553216","0.0-2.0-5.41","qd7yfgtyypvrqy3","","","","68"
"null","<div style=""font-size:60px;"">+</div>","null","fixation","html-keyboard-response","254","554222","0.0-2.0-0.42","qd7yfgtyypvrqy3","","","",""
"null","<div style=""font-size:60px;color:green"">+</div>","null","fixation","html-keyboard-response","255","554728","0.0-2.0-1.42","qd7yfgtyypvrqy3","","","",""
"null","mp3/2_Incomplete.mp3","null","song","audio-keyboard-response","256","555733","0.0-2.0-2.42","qd7yfgtyypvrqy3","angry","","",""
"1891.5949999936856","","","emotion_rating","survey-multi-choice","257","557626","0.0-2.0-3.42","qd7yfgtyypvrqy3","","{""Q0"":""Sad""}","[0]",""
"1693.9750000019558","<p>How negative/positive was this feeling expressed in this musical clip</p>","","valence rating","html-slider-response","258","559321","0.0-2.0-4.42","qd7yfgtyypvrqy3","","","","0"
"2432.7350000094157","<p>How energetic/arousing was the feeling expressed in this musical clip</p>","","arousal rating","html-slider-response","259","561755","0.0-2.0-5.42","qd7yfgtyypvrqy3","","","","82"
"null","<div style=""font-size:60px;"">+</div>","null","fixation","html-keyboard-response","260","562757","0.0-2.0-0.43","qd7yfgtyypvrqy3","","","",""
"null","<div style=""font-size:60px;color:green"">+</div>","null","fixation","html-keyboard-response","261","563258","0.0-2.0-1.43","qd7yfgtyypvrqy3","","","",""
"null","mp3/13_If_The_Creeks_Don't_Rise.mp3","null","song","audio-keyboard-response","262","564263","0.0-2.0-2.43","qd7yfgtyypvrqy3","happy","","",""
"4455.974999989849","","","emotion_rating","survey-multi-choice","263","568719","0.0-2.0-3.43","qd7yfgtyypvrqy3","","{""Q0"":""Happy""}","[0]",""
"2254.205000004731","<p>How negative/positive was this feeling expressed in this musical clip</p>","","valence rating","html-slider-response","264","570975","0.0-2.0-4.43","qd7yfgtyypvrqy3","","","","80"
"2401.14000000176","<p>How energetic/arousing was the feeling expressed in this musical clip</p>","","arousal rating","html-slider-response","265","573377","0.0-2.0-5.43","qd7yfgtyypvrqy3","","","","86"
"null","<div style=""font-size:60px;"">+</div>","null","fixation","html-keyboard-response","266","574383","0.0-2.0-0.44","qd7yfgtyypvrqy3","","","",""
"null","<div style=""font-size:60px;color:green"">+</div>","null","fixation","html-keyboard-response","267","574889","0.0-2.0-1.44","qd7yfgtyypvrqy3","","","",""
"null","mp3/9_If_The_Creeks_Don't_Rise.mp3","null","song","audio-keyboard-response","268","575891","0.0-2.0-2.44","qd7yfgtyypvrqy3","happy","","",""
"1439.1649999888614","","","emotion_rating","survey-multi-choice","269","577332","0.0-2.0-3.44","qd7yfgtyypvrqy3","","{""Q0"":""Happy""}","[0]",""
"4472.0650000090245","<p>How negative/positive was this feeling expressed in this musical clip</p>","","valence rating","html-slider-response","270","581805","0.0-2.0-4.44","qd7yfgtyypvrqy3","","","","96"
"2357.0550000004005","<p>How energetic/arousing was the feeling expressed in this musical clip</p>","","arousal rating","html-slider-response","271","584163","0.0-2.0-5.44","qd7yfgtyypvrqy3","","","","84"
"4014.4800000125542","Thankyou","32","thanks","html-keyboard-response","272","588178","0.0-3.0","qd7yfgtyypvrqy3","","","",""
