"rt","stimulus","key_press","test_part","trial_type","trial_index","time_elapsed","internal_node_id","subject","target","responses","question_order","response"
"2147.259999997914","Welcome to the experiment. Press any key to begin.","32","welcome","html-keyboard-response","0","2150","0.0-0.0","vzpuh9a0oxg5jbc","","","",""
"5118.409999995492","<p>In this study you will hear a short musical clip and then make some ratings about the emotion it expresses or conveys</p><p>First you will select which emotion you think the musical clip is expressing</p><p>You will then rate how pleasant the feeling expressed in the musical clip was and also how energetic it was</p><p>Press the space bar to begin</p>","32","instruction","html-keyboard-response","1","7272","0.0-1.0","vzpuh9a0oxg5jbc","","","",""
"null","<div style=""font-size:60px;"">+</div>","null","fixation","html-keyboard-response","2","8275","0.0-2.0-0.0","vzpuh9a0oxg5jbc","","","",""
"null","<div style=""font-size:60px;color:green"">+</div>","null","fixation","html-keyboard-response","3","8777","0.0-2.0-1.0","vzpuh9a0oxg5jbc","","","",""
"null","audio/2_Love's_Requiem.mp3","null","song","audio-keyboard-response","4","9782","0.0-2.0-2.0","vzpuh9a0oxg5jbc","sad","","",""
"4112.595000013243","","","emotion_rating","survey-multi-choice","5","13900","0.0-2.0-3.0","vzpuh9a0oxg5jbc","","{""Q0"":""Sad""}","[0]",""
"6050.93000002671","<p>How negative/positive was this feeling expressed in this musical clip</p>","","valence rating","html-slider-response","6","19956","0.0-2.0-4.0","vzpuh9a0oxg5jbc","","","","42"
"4759.94499999797","<p>How energetic/arousing was the feeling expressed in this musical clip</p>","","arousal rating","html-slider-response","7","24717","0.0-2.0-5.0","vzpuh9a0oxg5jbc","","","","45"
"null","<div style=""font-size:60px;"">+</div>","null","fixation","html-keyboard-response","8","25719","0.0-2.0-0.1","vzpuh9a0oxg5jbc","","","",""
"null","<div style=""font-size:60px;color:green"">+</div>","null","fixation","html-keyboard-response","9","26222","0.0-2.0-1.1","vzpuh9a0oxg5jbc","","","",""
"null","audio/13_Motown_Junk.mp3","null","song","audio-keyboard-response","10","27226","0.0-2.0-2.1","vzpuh9a0oxg5jbc","angry","","",""
"6023.0849999934435","","","emotion_rating","survey-multi-choice","11","33251","0.0-2.0-3.1","vzpuh9a0oxg5jbc","","{""Q0"":""None of these""}","[0]",""
"3843.155000009574","<p>How negative/positive was this feeling expressed in this musical clip</p>","","valence rating","html-slider-response","12","37099","0.0-2.0-4.1","vzpuh9a0oxg5jbc","","","","56"
"2826.8250000546686","<p>How energetic/arousing was the feeling expressed in this musical clip</p>","","arousal rating","html-slider-response","13","39927","0.0-2.0-5.1","vzpuh9a0oxg5jbc","","","","87"
"null","<div style=""font-size:60px;"">+</div>","null","fixation","html-keyboard-response","14","40930","0.0-2.0-0.2","vzpuh9a0oxg5jbc","","","",""
"null","<div style=""font-size:60px;color:green"">+</div>","null","fixation","html-keyboard-response","15","41432","0.0-2.0-1.2","vzpuh9a0oxg5jbc","","","",""
"null","audio/15_Bunkertor_7_(German_Texture).mp3","null","song","audio-keyboard-response","16","42438","0.0-2.0-2.2","vzpuh9a0oxg5jbc","angry","","",""
"5959.970000025351","","","emotion_rating","survey-multi-choice","17","48399","0.0-2.0-3.2","vzpuh9a0oxg5jbc","","{""Q0"":""Angry""}","[0]",""
"2278.924999991432","<p>How negative/positive was this feeling expressed in this musical clip</p>","","valence rating","html-slider-response","18","50683","0.0-2.0-4.2","vzpuh9a0oxg5jbc","","","","37"
"2469.3200000328943","<p>How energetic/arousing was the feeling expressed in this musical clip</p>","","arousal rating","html-slider-response","19","53153","0.0-2.0-5.2","vzpuh9a0oxg5jbc","","","","93"
"null","<div style=""font-size:60px;"">+</div>","null","fixation","html-keyboard-response","20","54154","0.0-2.0-0.3","vzpuh9a0oxg5jbc","","","",""
"null","<div style=""font-size:60px;color:green"">+</div>","null","fixation","html-keyboard-response","21","54656","0.0-2.0-1.3","vzpuh9a0oxg5jbc","","","",""
"null","audio/3_Old_Blacktop_[Album_Version].mp3","null","song","audio-keyboard-response","22","55659","0.0-2.0-2.3","vzpuh9a0oxg5jbc","sad","","",""
"1641.9050000258721","","","emotion_rating","survey-multi-choice","23","57304","0.0-2.0-3.3","vzpuh9a0oxg5jbc","","{""Q0"":""Sad""}","[0]",""
"3277.1300000022165","<p>How negative/positive was this feeling expressed in this musical clip</p>","","valence rating","html-slider-response","24","60585","0.0-2.0-4.3","vzpuh9a0oxg5jbc","","","","37"
"3266.7099999962375","<p>How energetic/arousing was the feeling expressed in this musical clip</p>","","arousal rating","html-slider-response","25","63853","0.0-2.0-5.3","vzpuh9a0oxg5jbc","","","","26"
"null","<div style=""font-size:60px;"">+</div>","null","fixation","html-keyboard-response","26","64854","0.0-2.0-0.4","vzpuh9a0oxg5jbc","","","",""
"null","<div style=""font-size:60px;color:green"">+</div>","null","fixation","html-keyboard-response","27","65358","0.0-2.0-1.4","vzpuh9a0oxg5jbc","","","",""
"null","audio/2_Sweet_Song.mp3","null","song","audio-keyboard-response","28","66364","0.0-2.0-2.4","vzpuh9a0oxg5jbc","relaxed","","",""
"3371.8949999893084","","","emotion_rating","survey-multi-choice","29","69739","0.0-2.0-3.4","vzpuh9a0oxg5jbc","","{""Q0"":""Relaxed""}","[0]",""
"3921.6700000106357","<p>How negative/positive was this feeling expressed in this musical clip</p>","","valence rating","html-slider-response","30","73665","0.0-2.0-4.4","vzpuh9a0oxg5jbc","","","","40"
"2259.2900000163354","<p>How energetic/arousing was the feeling expressed in this musical clip</p>","","arousal rating","html-slider-response","31","75925","0.0-2.0-5.4","vzpuh9a0oxg5jbc","","","","14"
"null","<div style=""font-size:60px;"">+</div>","null","fixation","html-keyboard-response","32","76929","0.0-2.0-0.5","vzpuh9a0oxg5jbc","","","",""
"null","<div style=""font-size:60px;color:green"">+</div>","null","fixation","html-keyboard-response","33","77432","0.0-2.0-1.5","vzpuh9a0oxg5jbc","","","",""
"null","audio/2_Inside.mp3","null","song","audio-keyboard-response","34","78435","0.0-2.0-2.5","vzpuh9a0oxg5jbc","sad","","",""
"7595.1050000148825","","","emotion_rating","survey-multi-choice","35","86031","0.0-2.0-3.5","vzpuh9a0oxg5jbc","","{""Q0"":""Sad""}","[0]",""
"2713.569999963511","<p>How negative/positive was this feeling expressed in this musical clip</p>","","valence rating","html-slider-response","36","88749","0.0-2.0-4.5","vzpuh9a0oxg5jbc","","","","40"
"1894.1600000252947","<p>How energetic/arousing was the feeling expressed in this musical clip</p>","","arousal rating","html-slider-response","37","90645","0.0-2.0-5.5","vzpuh9a0oxg5jbc","","","","34"
"null","<div style=""font-size:60px;"">+</div>","null","fixation","html-keyboard-response","38","91647","0.0-2.0-0.6","vzpuh9a0oxg5jbc","","","",""
"null","<div style=""font-size:60px;color:green"">+</div>","null","fixation","html-keyboard-response","39","92148","0.0-2.0-1.6","vzpuh9a0oxg5jbc","","","",""
"null","audio/23_Inside.mp3","null","song","audio-keyboard-response","40","93151","0.0-2.0-2.6","vzpuh9a0oxg5jbc","sad","","",""
"1559.4350000028498","","","emotion_rating","survey-multi-choice","41","94711","0.0-2.0-3.6","vzpuh9a0oxg5jbc","","{""Q0"":""Relaxed""}","[0]",""
"2001.1600000434555","<p>How negative/positive was this feeling expressed in this musical clip</p>","","valence rating","html-slider-response","42","96717","0.0-2.0-4.6","vzpuh9a0oxg5jbc","","","","68"
"5016.754999989644","<p>How energetic/arousing was the feeling expressed in this musical clip</p>","","arousal rating","html-slider-response","43","101735","0.0-2.0-5.6","vzpuh9a0oxg5jbc","","","","62"
"null","<div style=""font-size:60px;"">+</div>","null","fixation","html-keyboard-response","44","102736","0.0-2.0-0.7","vzpuh9a0oxg5jbc","","","",""
"null","<div style=""font-size:60px;color:green"">+</div>","null","fixation","html-keyboard-response","45","103239","0.0-2.0-1.7","vzpuh9a0oxg5jbc","","","",""
"null","audio/9_If_The_Creeks_Don't_Rise.mp3","null","song","audio-keyboard-response","46","104245","0.0-2.0-2.7","vzpuh9a0oxg5jbc","happy","","",""
"2899.504999979399","","","emotion_rating","survey-multi-choice","47","107147","0.0-2.0-3.7","vzpuh9a0oxg5jbc","","{""Q0"":""Happy""}","[0]",""
"2827.244999993127","<p>How negative/positive was this feeling expressed in this musical clip</p>","","valence rating","html-slider-response","48","109981","0.0-2.0-4.7","vzpuh9a0oxg5jbc","","","","73"
"1649.2500000167638","<p>How energetic/arousing was the feeling expressed in this musical clip</p>","","arousal rating","html-slider-response","49","111632","0.0-2.0-5.7","vzpuh9a0oxg5jbc","","","","40"
"null","<div style=""font-size:60px;"">+</div>","null","fixation","html-keyboard-response","50","112633","0.0-2.0-0.8","vzpuh9a0oxg5jbc","","","",""
"null","<div style=""font-size:60px;color:green"">+</div>","null","fixation","html-keyboard-response","51","113136","0.0-2.0-1.8","vzpuh9a0oxg5jbc","","","",""
"null","audio/3_It_Only_Hurts_When_I'm_Breathing.mp3","null","song","audio-keyboard-response","52","114139","0.0-2.0-2.8","vzpuh9a0oxg5jbc","sad","","",""
"10742.47999995714","","","emotion_rating","survey-multi-choice","53","124883","0.0-2.0-3.8","vzpuh9a0oxg5jbc","","{""Q0"":""Relaxed""}","[0]",""
"5216.0600000061095","<p>How negative/positive was this feeling expressed in this musical clip</p>","","valence rating","html-slider-response","54","130103","0.0-2.0-4.8","vzpuh9a0oxg5jbc","","","","56"
"2584.030000027269","<p>How energetic/arousing was the feeling expressed in this musical clip</p>","","arousal rating","html-slider-response","55","132689","0.0-2.0-5.8","vzpuh9a0oxg5jbc","","","","23"
"null","<div style=""font-size:60px;"">+</div>","null","fixation","html-keyboard-response","56","133690","0.0-2.0-0.9","vzpuh9a0oxg5jbc","","","",""
"null","<div style=""font-size:60px;color:green"">+</div>","null","fixation","html-keyboard-response","57","134194","0.0-2.0-1.9","vzpuh9a0oxg5jbc","","","",""
"null","audio/14_Get_Lucky.mp3","null","song","audio-keyboard-response","58","135197","0.0-2.0-2.9","vzpuh9a0oxg5jbc","happy","","",""
"2656.814999994822","","","emotion_rating","survey-multi-choice","59","137856","0.0-2.0-3.9","vzpuh9a0oxg5jbc","","{""Q0"":""Relaxed""}","[0]",""
"4168.859999976121","<p>How negative/positive was this feeling expressed in this musical clip</p>","","valence rating","html-slider-response","60","142029","0.0-2.0-4.9","vzpuh9a0oxg5jbc","","","","65"
"2594.825000036508","<p>How energetic/arousing was the feeling expressed in this musical clip</p>","","arousal rating","html-slider-response","61","144625","0.0-2.0-5.9","vzpuh9a0oxg5jbc","","","","60"
"null","<div style=""font-size:60px;"">+</div>","null","fixation","html-keyboard-response","62","145626","0.0-2.0-0.10","vzpuh9a0oxg5jbc","","","",""
"null","<div style=""font-size:60px;color:green"">+</div>","null","fixation","html-keyboard-response","63","146129","0.0-2.0-1.10","vzpuh9a0oxg5jbc","","","",""
"null","audio/15_Here_Today.mp3","null","song","audio-keyboard-response","64","147134","0.0-2.0-2.10","vzpuh9a0oxg5jbc","sad","","",""
"2035.7050000457093","","","emotion_rating","survey-multi-choice","65","149171","0.0-2.0-3.10","vzpuh9a0oxg5jbc","","{""Q0"":""Relaxed""}","[0]",""
"4523.65499996813","<p>How negative/positive was this feeling expressed in this musical clip</p>","","valence rating","html-slider-response","66","153701","0.0-2.0-4.10","vzpuh9a0oxg5jbc","","","","39"
"2284.929999965243","<p>How energetic/arousing was the feeling expressed in this musical clip</p>","","arousal rating","html-slider-response","67","155987","0.0-2.0-5.10","vzpuh9a0oxg5jbc","","","","22"
"null","<div style=""font-size:60px;"">+</div>","null","fixation","html-keyboard-response","68","156989","0.0-2.0-0.11","vzpuh9a0oxg5jbc","","","",""
"null","<div style=""font-size:60px;color:green"">+</div>","null","fixation","html-keyboard-response","69","157491","0.0-2.0-1.11","vzpuh9a0oxg5jbc","","","",""
"null","audio/11_Be_Happy.mp3","null","song","audio-keyboard-response","70","158495","0.0-2.0-2.11","vzpuh9a0oxg5jbc","happy","","",""
"5344.4349999772385","","","emotion_rating","survey-multi-choice","71","163841","0.0-2.0-3.11","vzpuh9a0oxg5jbc","","{""Q0"":""Relaxed""}","[0]",""
"5005.920000025071","<p>How negative/positive was this feeling expressed in this musical clip</p>","","valence rating","html-slider-response","72","168851","0.0-2.0-4.11","vzpuh9a0oxg5jbc","","","","62"
"2601.105000008829","<p>How energetic/arousing was the feeling expressed in this musical clip</p>","","arousal rating","html-slider-response","73","171453","0.0-2.0-5.11","vzpuh9a0oxg5jbc","","","","62"
"null","<div style=""font-size:60px;"">+</div>","null","fixation","html-keyboard-response","74","172455","0.0-2.0-0.12","vzpuh9a0oxg5jbc","","","",""
"null","<div style=""font-size:60px;color:green"">+</div>","null","fixation","html-keyboard-response","75","172958","0.0-2.0-1.12","vzpuh9a0oxg5jbc","","","",""
"null","audio/4_Come_On_Baby.mp3","null","song","audio-keyboard-response","76","173966","0.0-2.0-2.12","vzpuh9a0oxg5jbc","relaxed","","",""
"2063.209999992978","","","emotion_rating","survey-multi-choice","77","176030","0.0-2.0-3.12","vzpuh9a0oxg5jbc","","{""Q0"":""Relaxed""}","[0]",""
"5703.029999975115","<p>How negative/positive was this feeling expressed in this musical clip</p>","","valence rating","html-slider-response","78","181738","0.0-2.0-4.12","vzpuh9a0oxg5jbc","","","","57"
"2136.720000009518","<p>How energetic/arousing was the feeling expressed in this musical clip</p>","","arousal rating","html-slider-response","79","183876","0.0-2.0-5.12","vzpuh9a0oxg5jbc","","","","38"
"null","<div style=""font-size:60px;"">+</div>","null","fixation","html-keyboard-response","80","184878","0.0-2.0-0.13","vzpuh9a0oxg5jbc","","","",""
"null","<div style=""font-size:60px;color:green"">+</div>","null","fixation","html-keyboard-response","81","185381","0.0-2.0-1.13","vzpuh9a0oxg5jbc","","","",""
"null","audio/12_Skank_Down.mp3","null","song","audio-keyboard-response","82","186385","0.0-2.0-2.13","vzpuh9a0oxg5jbc","happy","","",""
"3988.374999957159","","","emotion_rating","survey-multi-choice","83","190375","0.0-2.0-3.13","vzpuh9a0oxg5jbc","","{""Q0"":""Happy""}","[0]",""
"2697.025000001304","<p>How negative/positive was this feeling expressed in this musical clip</p>","","valence rating","html-slider-response","84","193078","0.0-2.0-4.13","vzpuh9a0oxg5jbc","","","","61"
"1786.85500001302","<p>How energetic/arousing was the feeling expressed in this musical clip</p>","","arousal rating","html-slider-response","85","194866","0.0-2.0-5.13","vzpuh9a0oxg5jbc","","","","71"
"null","<div style=""font-size:60px;"">+</div>","null","fixation","html-keyboard-response","86","195868","0.0-2.0-0.14","vzpuh9a0oxg5jbc","","","",""
"null","<div style=""font-size:60px;color:green"">+</div>","null","fixation","html-keyboard-response","87","196371","0.0-2.0-1.14","vzpuh9a0oxg5jbc","","","",""
"null","audio/5_Valerie.mp3","null","song","audio-keyboard-response","88","197378","0.0-2.0-2.14","vzpuh9a0oxg5jbc","happy","","",""
"6507.685000018682","","","emotion_rating","survey-multi-choice","89","203888","0.0-2.0-3.14","vzpuh9a0oxg5jbc","","{""Q0"":""None of these""}","[0]",""
"3605.3850000025705","<p>How negative/positive was this feeling expressed in this musical clip</p>","","valence rating","html-slider-response","90","207498","0.0-2.0-4.14","vzpuh9a0oxg5jbc","","","","58"
"1818.810000026133","<p>How energetic/arousing was the feeling expressed in this musical clip</p>","","arousal rating","html-slider-response","91","209318","0.0-2.0-5.14","vzpuh9a0oxg5jbc","","","","57"
"null","<div style=""font-size:60px;"">+</div>","null","fixation","html-keyboard-response","92","210319","0.0-2.0-0.15","vzpuh9a0oxg5jbc","","","",""
"null","<div style=""font-size:60px;color:green"">+</div>","null","fixation","html-keyboard-response","93","210822","0.0-2.0-1.15","vzpuh9a0oxg5jbc","","","",""
"null","audio/8_Fire_And_Rain__(LP_Version).mp3","null","song","audio-keyboard-response","94","211827","0.0-2.0-2.15","vzpuh9a0oxg5jbc","sad","","",""
"2685.5849999701604","","","emotion_rating","survey-multi-choice","95","214514","0.0-2.0-3.15","vzpuh9a0oxg5jbc","","{""Q0"":""Relaxed""}","[0]",""
"4015.89999999851","<p>How negative/positive was this feeling expressed in this musical clip</p>","","valence rating","html-slider-response","96","218534","0.0-2.0-4.15","vzpuh9a0oxg5jbc","","","","55"
"2800.2850000048056","<p>How energetic/arousing was the feeling expressed in this musical clip</p>","","arousal rating","html-slider-response","97","221336","0.0-2.0-5.15","vzpuh9a0oxg5jbc","","","","36"
"null","<div style=""font-size:60px;"">+</div>","null","fixation","html-keyboard-response","98","222338","0.0-2.0-0.16","vzpuh9a0oxg5jbc","","","",""
"null","<div style=""font-size:60px;color:green"">+</div>","null","fixation","html-keyboard-response","99","222840","0.0-2.0-1.16","vzpuh9a0oxg5jbc","","","",""
"null","audio/2_On_A_Slow_Boat_To_China.mp3","null","song","audio-keyboard-response","100","223844","0.0-2.0-2.16","vzpuh9a0oxg5jbc","relaxed","","",""
"3570.2349999919534","","","emotion_rating","survey-multi-choice","101","227416","0.0-2.0-3.16","vzpuh9a0oxg5jbc","","{""Q0"":""Relaxed""}","[0]",""
"4109.664999996312","<p>How negative/positive was this feeling expressed in this musical clip</p>","","valence rating","html-slider-response","102","231530","0.0-2.0-4.16","vzpuh9a0oxg5jbc","","","","60"
"3514.7950000246055","<p>How energetic/arousing was the feeling expressed in this musical clip</p>","","arousal rating","html-slider-response","103","235047","0.0-2.0-5.16","vzpuh9a0oxg5jbc","","","","44"
"null","<div style=""font-size:60px;"">+</div>","null","fixation","html-keyboard-response","104","236048","0.0-2.0-0.17","vzpuh9a0oxg5jbc","","","",""
"null","<div style=""font-size:60px;color:green"">+</div>","null","fixation","html-keyboard-response","105","236549","0.0-2.0-1.17","vzpuh9a0oxg5jbc","","","",""
"null","audio/4_Mbube.mp3","null","song","audio-keyboard-response","106","237552","0.0-2.0-2.17","vzpuh9a0oxg5jbc","relaxed","","",""
"3086.7549999966286","","","emotion_rating","survey-multi-choice","107","240641","0.0-2.0-3.17","vzpuh9a0oxg5jbc","","{""Q0"":""Happy""}","[0]",""
"2561.0999999917112","<p>How negative/positive was this feeling expressed in this musical clip</p>","","valence rating","html-slider-response","108","243210","0.0-2.0-4.17","vzpuh9a0oxg5jbc","","","","66"
"1971.3900000206195","<p>How energetic/arousing was the feeling expressed in this musical clip</p>","","arousal rating","html-slider-response","109","245182","0.0-2.0-5.17","vzpuh9a0oxg5jbc","","","","41"
"null","<div style=""font-size:60px;"">+</div>","null","fixation","html-keyboard-response","110","246184","0.0-2.0-0.18","vzpuh9a0oxg5jbc","","","",""
"null","<div style=""font-size:60px;color:green"">+</div>","null","fixation","html-keyboard-response","111","246686","0.0-2.0-1.18","vzpuh9a0oxg5jbc","","","",""
"null","audio/7_Digital.mp3","null","song","audio-keyboard-response","112","247691","0.0-2.0-2.18","vzpuh9a0oxg5jbc","relaxed","","",""
"2253.2300000311807","","","emotion_rating","survey-multi-choice","113","249947","0.0-2.0-3.18","vzpuh9a0oxg5jbc","","{""Q0"":""None of these""}","[0]",""
"3169.6549999760464","<p>How negative/positive was this feeling expressed in this musical clip</p>","","valence rating","html-slider-response","114","253121","0.0-2.0-4.18","vzpuh9a0oxg5jbc","","","","50"
"2654.480000026524","<p>How energetic/arousing was the feeling expressed in this musical clip</p>","","arousal rating","html-slider-response","115","255776","0.0-2.0-5.18","vzpuh9a0oxg5jbc","","","","43"
"null","<div style=""font-size:60px;"">+</div>","null","fixation","html-keyboard-response","116","256780","0.0-2.0-0.19","vzpuh9a0oxg5jbc","","","",""
"null","<div style=""font-size:60px;color:green"">+</div>","null","fixation","html-keyboard-response","117","257283","0.0-2.0-1.19","vzpuh9a0oxg5jbc","","","",""
"null","audio/2_Boser_Wolf.mp3","null","song","audio-keyboard-response","118","258289","0.0-2.0-2.19","vzpuh9a0oxg5jbc","sad","","",""
"3695.675000024494","","","emotion_rating","survey-multi-choice","119","261987","0.0-2.0-3.19","vzpuh9a0oxg5jbc","","{""Q0"":""None of these""}","[0]",""
"2187.770000018645","<p>How negative/positive was this feeling expressed in this musical clip</p>","","valence rating","html-slider-response","120","264179","0.0-2.0-4.19","vzpuh9a0oxg5jbc","","","","50"
"1897.0649999682792","<p>How energetic/arousing was the feeling expressed in this musical clip</p>","","arousal rating","html-slider-response","121","266077","0.0-2.0-5.19","vzpuh9a0oxg5jbc","","","","38"
"null","<div style=""font-size:60px;"">+</div>","null","fixation","html-keyboard-response","122","267078","0.0-2.0-0.20","vzpuh9a0oxg5jbc","","","",""
"null","<div style=""font-size:60px;color:green"">+</div>","null","fixation","html-keyboard-response","123","267580","0.0-2.0-1.20","vzpuh9a0oxg5jbc","","","",""
"null","audio/1_The_Sweetest.mp3","null","song","audio-keyboard-response","124","268585","0.0-2.0-2.20","vzpuh9a0oxg5jbc","relaxed","","",""
"5047.439999994822","","","emotion_rating","survey-multi-choice","125","273634","0.0-2.0-3.20","vzpuh9a0oxg5jbc","","{""Q0"":""None of these""}","[0]",""
"1715.2350000105798","<p>How negative/positive was this feeling expressed in this musical clip</p>","","valence rating","html-slider-response","126","275354","0.0-2.0-4.20","vzpuh9a0oxg5jbc","","","","50"
"1965.0949999922886","<p>How energetic/arousing was the feeling expressed in this musical clip</p>","","arousal rating","html-slider-response","127","277320","0.0-2.0-5.20","vzpuh9a0oxg5jbc","","","","41"
"null","<div style=""font-size:60px;"">+</div>","null","fixation","html-keyboard-response","128","278322","0.0-2.0-0.21","vzpuh9a0oxg5jbc","","","",""
"null","<div style=""font-size:60px;color:green"">+</div>","null","fixation","html-keyboard-response","129","278825","0.0-2.0-1.21","vzpuh9a0oxg5jbc","","","",""
"null","audio/28_Valerie.mp3","null","song","audio-keyboard-response","130","279833","0.0-2.0-2.21","vzpuh9a0oxg5jbc","happy","","",""
"4425.984999979846","","","emotion_rating","survey-multi-choice","131","284261","0.0-2.0-3.21","vzpuh9a0oxg5jbc","","{""Q0"":""Happy""}","[0]",""
"1613.6599999736063","<p>How negative/positive was this feeling expressed in this musical clip</p>","","valence rating","html-slider-response","132","285879","0.0-2.0-4.21","vzpuh9a0oxg5jbc","","","","59"
"2013.4650000254624","<p>How energetic/arousing was the feeling expressed in this musical clip</p>","","arousal rating","html-slider-response","133","287893","0.0-2.0-5.21","vzpuh9a0oxg5jbc","","","","57"
"null","<div style=""font-size:60px;"">+</div>","null","fixation","html-keyboard-response","134","288897","0.0-2.0-0.22","vzpuh9a0oxg5jbc","","","",""
"null","<div style=""font-size:60px;color:green"">+</div>","null","fixation","html-keyboard-response","135","289401","0.0-2.0-1.22","vzpuh9a0oxg5jbc","","","",""
"null","audio/9_Pain_(Live_Version).mp3","null","song","audio-keyboard-response","136","290404","0.0-2.0-2.22","vzpuh9a0oxg5jbc","angry","","",""
"8512.854999979027","","","emotion_rating","survey-multi-choice","137","298918","0.0-2.0-3.22","vzpuh9a0oxg5jbc","","{""Q0"":""None of these""}","[0]",""
"3542.180000047665","<p>How negative/positive was this feeling expressed in this musical clip</p>","","valence rating","html-slider-response","138","302466","0.0-2.0-4.22","vzpuh9a0oxg5jbc","","","","46"
"2531.090000004042","<p>How energetic/arousing was the feeling expressed in this musical clip</p>","","arousal rating","html-slider-response","139","304999","0.0-2.0-5.22","vzpuh9a0oxg5jbc","","","","73"
"null","<div style=""font-size:60px;"">+</div>","null","fixation","html-keyboard-response","140","306001","0.0-2.0-0.23","vzpuh9a0oxg5jbc","","","",""
"null","<div style=""font-size:60px;color:green"">+</div>","null","fixation","html-keyboard-response","141","306503","0.0-2.0-1.23","vzpuh9a0oxg5jbc","","","",""
"null","audio/7_Here_Today.mp3","null","song","audio-keyboard-response","142","307508","0.0-2.0-2.23","vzpuh9a0oxg5jbc","sad","","",""
"1670.4599999939092","","","emotion_rating","survey-multi-choice","143","309180","0.0-2.0-3.23","vzpuh9a0oxg5jbc","","{""Q0"":""Relaxed""}","[0]",""
"2341.9149999972433","<p>How negative/positive was this feeling expressed in this musical clip</p>","","valence rating","html-slider-response","144","311526","0.0-2.0-4.23","vzpuh9a0oxg5jbc","","","","59"
"2436.7050000000745","<p>How energetic/arousing was the feeling expressed in this musical clip</p>","","arousal rating","html-slider-response","145","313964","0.0-2.0-5.23","vzpuh9a0oxg5jbc","","","","16"
"null","<div style=""font-size:60px;"">+</div>","null","fixation","html-keyboard-response","146","314965","0.0-2.0-0.24","vzpuh9a0oxg5jbc","","","",""
"null","<div style=""font-size:60px;color:green"">+</div>","null","fixation","html-keyboard-response","147","315467","0.0-2.0-1.24","vzpuh9a0oxg5jbc","","","",""
"null","audio/1_Be_Happy.mp3","null","song","audio-keyboard-response","148","316471","0.0-2.0-2.24","vzpuh9a0oxg5jbc","happy","","",""
"2286.034999997355","","","emotion_rating","survey-multi-choice","149","318758","0.0-2.0-3.24","vzpuh9a0oxg5jbc","","{""Q0"":""Relaxed""}","[0]",""
"2759.814999997616","<p>How negative/positive was this feeling expressed in this musical clip</p>","","valence rating","html-slider-response","150","321522","0.0-2.0-4.24","vzpuh9a0oxg5jbc","","","","64"
"1724.9449999653734","<p>How energetic/arousing was the feeling expressed in this musical clip</p>","","arousal rating","html-slider-response","151","323248","0.0-2.0-5.24","vzpuh9a0oxg5jbc","","","","36"
"null","<div style=""font-size:60px;"">+</div>","null","fixation","html-keyboard-response","152","324251","0.0-2.0-0.25","vzpuh9a0oxg5jbc","","","",""
"null","<div style=""font-size:60px;color:green"">+</div>","null","fixation","html-keyboard-response","153","324754","0.0-2.0-1.25","vzpuh9a0oxg5jbc","","","",""
"null","audio/26_Make_Light.mp3","null","song","audio-keyboard-response","154","325760","0.0-2.0-2.25","vzpuh9a0oxg5jbc","happy","","",""
"5284.554999961983","","","emotion_rating","survey-multi-choice","155","331047","0.0-2.0-3.25","vzpuh9a0oxg5jbc","","{""Q0"":""Relaxed""}","[0]",""
"2451.9149999832734","<p>How negative/positive was this feeling expressed in this musical clip</p>","","valence rating","html-slider-response","156","333503","0.0-2.0-4.25","vzpuh9a0oxg5jbc","","","","66"
"1840.555000002496","<p>How energetic/arousing was the feeling expressed in this musical clip</p>","","arousal rating","html-slider-response","157","335344","0.0-2.0-5.25","vzpuh9a0oxg5jbc","","","","67"
"null","<div style=""font-size:60px;"">+</div>","null","fixation","html-keyboard-response","158","336347","0.0-2.0-0.26","vzpuh9a0oxg5jbc","","","",""
"null","<div style=""font-size:60px;color:green"">+</div>","null","fixation","html-keyboard-response","159","336849","0.0-2.0-1.26","vzpuh9a0oxg5jbc","","","",""
"null","audio/25_Old_Blacktop_[Album_Version].mp3","null","song","audio-keyboard-response","160","337853","0.0-2.0-2.26","vzpuh9a0oxg5jbc","sad","","",""
"1445.1199999894015","","","emotion_rating","survey-multi-choice","161","339301","0.0-2.0-3.26","vzpuh9a0oxg5jbc","","{""Q0"":""Relaxed""}","[0]",""
"2457.46499998495","<p>How negative/positive was this feeling expressed in this musical clip</p>","","valence rating","html-slider-response","162","341762","0.0-2.0-4.26","vzpuh9a0oxg5jbc","","","","58"
"1600.7300000055693","<p>How energetic/arousing was the feeling expressed in this musical clip</p>","","arousal rating","html-slider-response","163","343364","0.0-2.0-5.26","vzpuh9a0oxg5jbc","","","","31"
"null","<div style=""font-size:60px;"">+</div>","null","fixation","html-keyboard-response","164","344366","0.0-2.0-0.27","vzpuh9a0oxg5jbc","","","",""
"null","<div style=""font-size:60px;color:green"">+</div>","null","fixation","html-keyboard-response","165","344868","0.0-2.0-1.27","vzpuh9a0oxg5jbc","","","",""
"null","audio/19_I_hate_Everything_About_You.mp3","null","song","audio-keyboard-response","166","345871","0.0-2.0-2.27","vzpuh9a0oxg5jbc","angry","","",""
"16355.000000039581","","","emotion_rating","survey-multi-choice","167","362227","0.0-2.0-3.27","vzpuh9a0oxg5jbc","","{""Q0"":""None of these""}","[0]",""
"5029.099999985192","<p>How negative/positive was this feeling expressed in this musical clip</p>","","valence rating","html-slider-response","168","367260","0.0-2.0-4.27","vzpuh9a0oxg5jbc","","","","64"
"2003.0999999726191","<p>How energetic/arousing was the feeling expressed in this musical clip</p>","","arousal rating","html-slider-response","169","369264","0.0-2.0-5.27","vzpuh9a0oxg5jbc","","","","70"
"null","<div style=""font-size:60px;"">+</div>","null","fixation","html-keyboard-response","170","370266","0.0-2.0-0.28","vzpuh9a0oxg5jbc","","","",""
"null","<div style=""font-size:60px;color:green"">+</div>","null","fixation","html-keyboard-response","171","370768","0.0-2.0-1.28","vzpuh9a0oxg5jbc","","","",""
"null","audio/3_Walk_on_the_wild_side.mp3","null","song","audio-keyboard-response","172","371774","0.0-2.0-2.28","vzpuh9a0oxg5jbc","relaxed","","",""
"1244.719999958761","","","emotion_rating","survey-multi-choice","173","373021","0.0-2.0-3.28","vzpuh9a0oxg5jbc","","{""Q0"":""Relaxed""}","[0]",""
"2217.83499995945","<p>How negative/positive was this feeling expressed in this musical clip</p>","","valence rating","html-slider-response","174","375242","0.0-2.0-4.28","vzpuh9a0oxg5jbc","","","","50"
"1471.1499999975786","<p>How energetic/arousing was the feeling expressed in this musical clip</p>","","arousal rating","html-slider-response","175","376714","0.0-2.0-5.28","vzpuh9a0oxg5jbc","","","","21"
"null","<div style=""font-size:60px;"">+</div>","null","fixation","html-keyboard-response","176","377716","0.0-2.0-0.29","vzpuh9a0oxg5jbc","","","",""
"null","<div style=""font-size:60px;color:green"">+</div>","null","fixation","html-keyboard-response","177","378221","0.0-2.0-1.29","vzpuh9a0oxg5jbc","","","",""
"null","audio/12_Fire_And_Rain_(LP_Version).mp3","null","song","audio-keyboard-response","178","379223","0.0-2.0-2.29","vzpuh9a0oxg5jbc","sad","","",""
"2166.2150000338443","","","emotion_rating","survey-multi-choice","179","381391","0.0-2.0-3.29","vzpuh9a0oxg5jbc","","{""Q0"":""Relaxed""}","[0]",""
"2294.049999967683","<p>How negative/positive was this feeling expressed in this musical clip</p>","","valence rating","html-slider-response","180","383689","0.0-2.0-4.29","vzpuh9a0oxg5jbc","","","","55"
"2762.589999998454","<p>How energetic/arousing was the feeling expressed in this musical clip</p>","","arousal rating","html-slider-response","181","386453","0.0-2.0-5.29","vzpuh9a0oxg5jbc","","","","28"
"null","<div style=""font-size:60px;"">+</div>","null","fixation","html-keyboard-response","182","387455","0.0-2.0-0.30","vzpuh9a0oxg5jbc","","","",""
"null","<div style=""font-size:60px;color:green"">+</div>","null","fixation","html-keyboard-response","183","387957","0.0-2.0-1.30","vzpuh9a0oxg5jbc","","","",""
"null","audio/4_Make_Light.mp3","null","song","audio-keyboard-response","184","388961","0.0-2.0-2.30","vzpuh9a0oxg5jbc","happy","","",""
"2499.3150000227615","","","emotion_rating","survey-multi-choice","185","391463","0.0-2.0-3.30","vzpuh9a0oxg5jbc","","{""Q0"":""Relaxed""}","[0]",""
"2826.089999987744","<p>How negative/positive was this feeling expressed in this musical clip</p>","","valence rating","html-slider-response","186","394295","0.0-2.0-4.30","vzpuh9a0oxg5jbc","","","","60"
"1516.6650000028312","<p>How energetic/arousing was the feeling expressed in this musical clip</p>","","arousal rating","html-slider-response","187","395812","0.0-2.0-5.30","vzpuh9a0oxg5jbc","","","","38"
"null","<div style=""font-size:60px;"">+</div>","null","fixation","html-keyboard-response","188","396814","0.0-2.0-0.31","vzpuh9a0oxg5jbc","","","",""
"null","<div style=""font-size:60px;color:green"">+</div>","null","fixation","html-keyboard-response","189","397316","0.0-2.0-1.31","vzpuh9a0oxg5jbc","","","",""
"null","audio/2_Blood_On_The_Ground.mp3","null","song","audio-keyboard-response","190","398318","0.0-2.0-2.31","vzpuh9a0oxg5jbc","angry","","",""
"9911.345000029542","","","emotion_rating","survey-multi-choice","191","408231","0.0-2.0-3.31","vzpuh9a0oxg5jbc","","{""Q0"":""None of these""}","[0]",""
"2364.8900000262074","<p>How negative/positive was this feeling expressed in this musical clip</p>","","valence rating","html-slider-response","192","410600","0.0-2.0-4.31","vzpuh9a0oxg5jbc","","","","57"
"1647.179999970831","<p>How energetic/arousing was the feeling expressed in this musical clip</p>","","arousal rating","html-slider-response","193","412249","0.0-2.0-5.31","vzpuh9a0oxg5jbc","","","","66"
"null","<div style=""font-size:60px;"">+</div>","null","fixation","html-keyboard-response","194","413251","0.0-2.0-0.32","vzpuh9a0oxg5jbc","","","",""
"null","<div style=""font-size:60px;color:green"">+</div>","null","fixation","html-keyboard-response","195","413754","0.0-2.0-1.32","vzpuh9a0oxg5jbc","","","",""
"null","audio/21_Skank_Down.mp3","null","song","audio-keyboard-response","196","414761","0.0-2.0-2.32","vzpuh9a0oxg5jbc","happy","","",""
"6001.310000021476","","","emotion_rating","survey-multi-choice","197","420764","0.0-2.0-3.32","vzpuh9a0oxg5jbc","","{""Q0"":""None of these""}","[0]",""
"2713.4900000528432","<p>How negative/positive was this feeling expressed in this musical clip</p>","","valence rating","html-slider-response","198","423482","0.0-2.0-4.32","vzpuh9a0oxg5jbc","","","","56"
"1446.4649999863468","<p>How energetic/arousing was the feeling expressed in this musical clip</p>","","arousal rating","html-slider-response","199","424929","0.0-2.0-5.32","vzpuh9a0oxg5jbc","","","","66"
"null","<div style=""font-size:60px;"">+</div>","null","fixation","html-keyboard-response","200","425931","0.0-2.0-0.33","vzpuh9a0oxg5jbc","","","",""
"null","<div style=""font-size:60px;color:green"">+</div>","null","fixation","html-keyboard-response","201","426434","0.0-2.0-1.33","vzpuh9a0oxg5jbc","","","",""
"null","audio/2_Incomplete.mp3","null","song","audio-keyboard-response","202","427438","0.0-2.0-2.33","vzpuh9a0oxg5jbc","angry","","",""
"2977.489999961108","","","emotion_rating","survey-multi-choice","203","430418","0.0-2.0-3.33","vzpuh9a0oxg5jbc","","{""Q0"":""Angry""}","[0]",""
"3326.8300000345334","<p>How negative/positive was this feeling expressed in this musical clip</p>","","valence rating","html-slider-response","204","433749","0.0-2.0-4.33","vzpuh9a0oxg5jbc","","","","45"
"1716.3399999844842","<p>How energetic/arousing was the feeling expressed in this musical clip</p>","","arousal rating","html-slider-response","205","435466","0.0-2.0-5.33","vzpuh9a0oxg5jbc","","","","64"
"null","<div style=""font-size:60px;"">+</div>","null","fixation","html-keyboard-response","206","436468","0.0-2.0-0.34","vzpuh9a0oxg5jbc","","","",""
"null","<div style=""font-size:60px;color:green"">+</div>","null","fixation","html-keyboard-response","207","436971","0.0-2.0-1.34","vzpuh9a0oxg5jbc","","","",""
"null","audio/4_Destiny.mp3","null","song","audio-keyboard-response","208","437976","0.0-2.0-2.34","vzpuh9a0oxg5jbc","relaxed","","",""
"1948.2149999821559","","","emotion_rating","survey-multi-choice","209","439926","0.0-2.0-3.34","vzpuh9a0oxg5jbc","","{""Q0"":""Happy""}","[0]",""
"2371.3199999765493","<p>How negative/positive was this feeling expressed in this musical clip</p>","","valence rating","html-slider-response","210","442302","0.0-2.0-4.34","vzpuh9a0oxg5jbc","","","","60"
"1709.134999953676","<p>How energetic/arousing was the feeling expressed in this musical clip</p>","","arousal rating","html-slider-response","211","444013","0.0-2.0-5.34","vzpuh9a0oxg5jbc","","","","57"
"null","<div style=""font-size:60px;"">+</div>","null","fixation","html-keyboard-response","212","445015","0.0-2.0-0.35","vzpuh9a0oxg5jbc","","","",""
"null","<div style=""font-size:60px;color:green"">+</div>","null","fixation","html-keyboard-response","213","445517","0.0-2.0-1.35","vzpuh9a0oxg5jbc","","","",""
"null","audio/1_Skinny_Love.mp3","null","song","audio-keyboard-response","214","446521","0.0-2.0-2.35","vzpuh9a0oxg5jbc","sad","","",""
"2126.7600000137463","","","emotion_rating","survey-multi-choice","215","448650","0.0-2.0-3.35","vzpuh9a0oxg5jbc","","{""Q0"":""Sad""}","[0]",""
"2689.7849999950267","<p>How negative/positive was this feeling expressed in this musical clip</p>","","valence rating","html-slider-response","216","451344","0.0-2.0-4.35","vzpuh9a0oxg5jbc","","","","37"
"1600.6349999806844","<p>How energetic/arousing was the feeling expressed in this musical clip</p>","","arousal rating","html-slider-response","217","452946","0.0-2.0-5.35","vzpuh9a0oxg5jbc","","","","26"
"null","<div style=""font-size:60px;"">+</div>","null","fixation","html-keyboard-response","218","453948","0.0-2.0-0.36","vzpuh9a0oxg5jbc","","","",""
"null","<div style=""font-size:60px;color:green"">+</div>","null","fixation","html-keyboard-response","219","454451","0.0-2.0-1.36","vzpuh9a0oxg5jbc","","","",""
"null","audio/16_Restless.mp3","null","song","audio-keyboard-response","220","455455","0.0-2.0-2.36","vzpuh9a0oxg5jbc","happy","","",""
"2405.88499995647","","","emotion_rating","survey-multi-choice","221","457863","0.0-2.0-3.36","vzpuh9a0oxg5jbc","","{""Q0"":""Happy""}","[0]",""
"1851.1449999641627","<p>How negative/positive was this feeling expressed in this musical clip</p>","","valence rating","html-slider-response","222","459720","0.0-2.0-4.36","vzpuh9a0oxg5jbc","","","","57"
"1461.1649999860674","<p>How energetic/arousing was the feeling expressed in this musical clip</p>","","arousal rating","html-slider-response","223","461182","0.0-2.0-5.36","vzpuh9a0oxg5jbc","","","","65"
"null","<div style=""font-size:60px;"">+</div>","null","fixation","html-keyboard-response","224","462183","0.0-2.0-0.37","vzpuh9a0oxg5jbc","","","",""
"null","<div style=""font-size:60px;color:green"">+</div>","null","fixation","html-keyboard-response","225","462685","0.0-2.0-1.37","vzpuh9a0oxg5jbc","","","",""
"null","audio/26_It_Only_Hurts_When_I'm_Breathing.mp3","null","song","audio-keyboard-response","226","463690","0.0-2.0-2.37","vzpuh9a0oxg5jbc","sad","","",""
"2198.8849999615923","","","emotion_rating","survey-multi-choice","227","465890","0.0-2.0-3.37","vzpuh9a0oxg5jbc","","{""Q0"":""Sad""}","[0]",""
"2192.7949999808334","<p>How negative/positive was this feeling expressed in this musical clip</p>","","valence rating","html-slider-response","228","468088","0.0-2.0-4.37","vzpuh9a0oxg5jbc","","","","37"
"4124.335000000428","<p>How energetic/arousing was the feeling expressed in this musical clip</p>","","arousal rating","html-slider-response","229","472214","0.0-2.0-5.37","vzpuh9a0oxg5jbc","","","","47"
"null","<div style=""font-size:60px;"">+</div>","null","fixation","html-keyboard-response","230","473215","0.0-2.0-0.38","vzpuh9a0oxg5jbc","","","",""
"null","<div style=""font-size:60px;color:green"">+</div>","null","fixation","html-keyboard-response","231","473718","0.0-2.0-1.38","vzpuh9a0oxg5jbc","","","",""
"null","audio/5_Love's_Requiem.mp3","null","song","audio-keyboard-response","232","474723","0.0-2.0-2.38","vzpuh9a0oxg5jbc","sad","","",""
"1693.779999972321","","","emotion_rating","survey-multi-choice","233","476418","0.0-2.0-3.38","vzpuh9a0oxg5jbc","","{""Q0"":""Sad""}","[0]",""
"2171.310000005178","<p>How negative/positive was this feeling expressed in this musical clip</p>","","valence rating","html-slider-response","234","478593","0.0-2.0-4.38","vzpuh9a0oxg5jbc","","","","41"
"1423.339999979362","<p>How energetic/arousing was the feeling expressed in this musical clip</p>","","arousal rating","html-slider-response","235","480018","0.0-2.0-5.38","vzpuh9a0oxg5jbc","","","","35"
"null","<div style=""font-size:60px;"">+</div>","null","fixation","html-keyboard-response","236","481021","0.0-2.0-0.39","vzpuh9a0oxg5jbc","","","",""
"null","<div style=""font-size:60px;color:green"">+</div>","null","fixation","html-keyboard-response","237","481523","0.0-2.0-1.39","vzpuh9a0oxg5jbc","","","",""
"null","audio/13_Boser_Wolf.mp3","null","song","audio-keyboard-response","238","482526","0.0-2.0-2.39","vzpuh9a0oxg5jbc","sad","","",""
"5294.174999988172","","","emotion_rating","survey-multi-choice","239","487822","0.0-2.0-3.39","vzpuh9a0oxg5jbc","","{""Q0"":""Relaxed""}","[0]",""
"2867.275000025984","<p>How negative/positive was this feeling expressed in this musical clip</p>","","valence rating","html-slider-response","240","490694","0.0-2.0-4.39","vzpuh9a0oxg5jbc","","","","45"
"1794.9399999924935","<p>How energetic/arousing was the feeling expressed in this musical clip</p>","","arousal rating","html-slider-response","241","492490","0.0-2.0-5.39","vzpuh9a0oxg5jbc","","","","39"
"null","<div style=""font-size:60px;"">+</div>","null","fixation","html-keyboard-response","242","493491","0.0-2.0-0.40","vzpuh9a0oxg5jbc","","","",""
"null","<div style=""font-size:60px;color:green"">+</div>","null","fixation","html-keyboard-response","243","493993","0.0-2.0-1.40","vzpuh9a0oxg5jbc","","","",""
"null","audio/8_Restless.mp3","null","song","audio-keyboard-response","244","494999","0.0-2.0-2.40","vzpuh9a0oxg5jbc","happy","","",""
"3738.7650000164285","","","emotion_rating","survey-multi-choice","245","498738","0.0-2.0-3.40","vzpuh9a0oxg5jbc","","{""Q0"":""Happy""}","[0]",""
"2200.3550000372343","<p>How negative/positive was this feeling expressed in this musical clip</p>","","valence rating","html-slider-response","246","500943","0.0-2.0-4.40","vzpuh9a0oxg5jbc","","","","63"
"1447.104999970179","<p>How energetic/arousing was the feeling expressed in this musical clip</p>","","arousal rating","html-slider-response","247","502392","0.0-2.0-5.40","vzpuh9a0oxg5jbc","","","","56"
"null","<div style=""font-size:60px;"">+</div>","null","fixation","html-keyboard-response","248","503394","0.0-2.0-0.41","vzpuh9a0oxg5jbc","","","",""
"null","<div style=""font-size:60px;color:green"">+</div>","null","fixation","html-keyboard-response","249","503895","0.0-2.0-1.41","vzpuh9a0oxg5jbc","","","",""
"null","audio/13_If_The_Creeks_Don't_Rise.mp3","null","song","audio-keyboard-response","250","504898","0.0-2.0-2.41","vzpuh9a0oxg5jbc","happy","","",""
"1476.7350000329316","","","emotion_rating","survey-multi-choice","251","506378","0.0-2.0-3.41","vzpuh9a0oxg5jbc","","{""Q0"":""Relaxed""}","[0]",""
"2176.615000003949","<p>How negative/positive was this feeling expressed in this musical clip</p>","","valence rating","html-slider-response","252","508561","0.0-2.0-4.41","vzpuh9a0oxg5jbc","","","","67"
"1368.7050000298768","<p>How energetic/arousing was the feeling expressed in this musical clip</p>","","arousal rating","html-slider-response","253","509931","0.0-2.0-5.41","vzpuh9a0oxg5jbc","","","","34"
"null","<div style=""font-size:60px;"">+</div>","null","fixation","html-keyboard-response","254","510934","0.0-2.0-0.42","vzpuh9a0oxg5jbc","","","",""
"null","<div style=""font-size:60px;color:green"">+</div>","null","fixation","html-keyboard-response","255","511436","0.0-2.0-1.42","vzpuh9a0oxg5jbc","","","",""
"null","audio/12_Skinny_Love.mp3","null","song","audio-keyboard-response","256","512438","0.0-2.0-2.42","vzpuh9a0oxg5jbc","sad","","",""
"1605.2299999864772","","","emotion_rating","survey-multi-choice","257","514044","0.0-2.0-3.42","vzpuh9a0oxg5jbc","","{""Q0"":""Sad""}","[0]",""
"1762.3899999889545","<p>How negative/positive was this feeling expressed in this musical clip</p>","","valence rating","html-slider-response","258","515811","0.0-2.0-4.42","vzpuh9a0oxg5jbc","","","","41"
"1561.470000015106","<p>How energetic/arousing was the feeling expressed in this musical clip</p>","","arousal rating","html-slider-response","259","517374","0.0-2.0-5.42","vzpuh9a0oxg5jbc","","","","26"
"null","<div style=""font-size:60px;"">+</div>","null","fixation","html-keyboard-response","260","518376","0.0-2.0-0.43","vzpuh9a0oxg5jbc","","","",""
"null","<div style=""font-size:60px;color:green"">+</div>","null","fixation","html-keyboard-response","261","518880","0.0-2.0-1.43","vzpuh9a0oxg5jbc","","","",""
"null","audio/5_Get_Lucky.mp3","null","song","audio-keyboard-response","262","519883","0.0-2.0-2.43","vzpuh9a0oxg5jbc","happy","","",""
"7570.8100000047125","","","emotion_rating","survey-multi-choice","263","527456","0.0-2.0-3.43","vzpuh9a0oxg5jbc","","{""Q0"":""None of these""}","[0]",""
"2503.454999998212","<p>How negative/positive was this feeling expressed in this musical clip</p>","","valence rating","html-slider-response","264","529963","0.0-2.0-4.43","vzpuh9a0oxg5jbc","","","","56"
"1083.00500002224","<p>How energetic/arousing was the feeling expressed in this musical clip</p>","","arousal rating","html-slider-response","265","531048","0.0-2.0-5.43","vzpuh9a0oxg5jbc","","","","34"
"null","<div style=""font-size:60px;"">+</div>","null","fixation","html-keyboard-response","266","532050","0.0-2.0-0.44","vzpuh9a0oxg5jbc","","","",""
"null","<div style=""font-size:60px;color:green"">+</div>","null","fixation","html-keyboard-response","267","532551","0.0-2.0-1.44","vzpuh9a0oxg5jbc","","","",""
"null","audio/24_Restless.mp3","null","song","audio-keyboard-response","268","533555","0.0-2.0-2.44","vzpuh9a0oxg5jbc","happy","","",""
"2330.789999978151","","","emotion_rating","survey-multi-choice","269","535888","0.0-2.0-3.44","vzpuh9a0oxg5jbc","","{""Q0"":""Relaxed""}","[0]",""
"2177.0350000006147","<p>How negative/positive was this feeling expressed in this musical clip</p>","","valence rating","html-slider-response","270","538070","0.0-2.0-4.44","vzpuh9a0oxg5jbc","","","","43"
"1834.1500000096858","<p>How energetic/arousing was the feeling expressed in this musical clip</p>","","arousal rating","html-slider-response","271","539906","0.0-2.0-5.44","vzpuh9a0oxg5jbc","","","","60"
