"rt","stimulus","key_press","test_part","trial_type","trial_index","time_elapsed","internal_node_id","subject","target","responses","question_order","response"
"5714.184999989811","Welcome to the experiment. Press any key to begin.","32","welcome","html-keyboard-response","0","5717","0.0-0.0","mr02t2o5o3n8nu8","","","",""
"43125.270000018645","<p>In this study you will hear a short musical clip and then make some ratings about the emotion it expresses or conveys</p><p>First you will select which emotion you think the musical clip is expressing</p><p>You will then rate how pleasant the feeling expressed in the musical clip was and also how energetic it was</p><p>Press the space bar to begin</p>","32","instruction","html-keyboard-response","1","48844","0.0-1.0","mr02t2o5o3n8nu8","","","",""
"null","<div style=""font-size:60px;"">+</div>","null","fixation","html-keyboard-response","2","49844","0.0-2.0-0.0","mr02t2o5o3n8nu8","","","",""
"null","<div style=""font-size:60px;color:green"">+</div>","null","fixation","html-keyboard-response","3","50346","0.0-2.0-1.0","mr02t2o5o3n8nu8","","","",""
"null","audio/3_It_Only_Hurts_When_I'm_Breathing.mp3","null","song","audio-keyboard-response","4","51349","0.0-2.0-2.0","mr02t2o5o3n8nu8","sad","","",""
"7048.3750000130385","","","emotion_rating","survey-multi-choice","5","58399","0.0-2.0-3.0","mr02t2o5o3n8nu8","","{""Q0"":""None of these""}","[0]",""
"3892.6900000078604","<p>How negative/positive was this feeling expressed in this musical clip</p>","","valence rating","html-slider-response","6","62313","0.0-2.0-4.0","mr02t2o5o3n8nu8","","","","13"
"5435.160000022734","<p>How energetic/arousing was the feeling expressed in this musical clip</p>","","arousal rating","html-slider-response","7","67749","0.0-2.0-5.0","mr02t2o5o3n8nu8","","","","35"
"null","<div style=""font-size:60px;"">+</div>","null","fixation","html-keyboard-response","8","68750","0.0-2.0-0.1","mr02t2o5o3n8nu8","","","",""
"null","<div style=""font-size:60px;color:green"">+</div>","null","fixation","html-keyboard-response","9","69252","0.0-2.0-1.1","mr02t2o5o3n8nu8","","","",""
"null","audio/26_Make_Light.mp3","null","song","audio-keyboard-response","10","70253","0.0-2.0-2.1","mr02t2o5o3n8nu8","happy","","",""
"5285.615000000689","","","emotion_rating","survey-multi-choice","11","75540","0.0-2.0-3.1","mr02t2o5o3n8nu8","","{""Q0"":""Happy""}","[0]",""
"2418.774999998277","<p>How negative/positive was this feeling expressed in this musical clip</p>","","valence rating","html-slider-response","12","77980","0.0-2.0-4.1","mr02t2o5o3n8nu8","","","","77"
"1953.0200000153854","<p>How energetic/arousing was the feeling expressed in this musical clip</p>","","arousal rating","html-slider-response","13","79934","0.0-2.0-5.1","mr02t2o5o3n8nu8","","","","70"
"null","<div style=""font-size:60px;"">+</div>","null","fixation","html-keyboard-response","14","80935","0.0-2.0-0.2","mr02t2o5o3n8nu8","","","",""
"null","<div style=""font-size:60px;color:green"">+</div>","null","fixation","html-keyboard-response","15","81436","0.0-2.0-1.2","mr02t2o5o3n8nu8","","","",""
"null","audio/9_Pain_(Live_Version).mp3","null","song","audio-keyboard-response","16","82439","0.0-2.0-2.2","mr02t2o5o3n8nu8","angry","","",""
"3424.5049999735784","","","emotion_rating","survey-multi-choice","17","85865","0.0-2.0-3.2","mr02t2o5o3n8nu8","","{""Q0"":""Angry""}","[0]",""
"7755.669999984093","<p>How negative/positive was this feeling expressed in this musical clip</p>","","valence rating","html-slider-response","18","93642","0.0-2.0-4.2","mr02t2o5o3n8nu8","","","","31"
"3041.189999989001","<p>How energetic/arousing was the feeling expressed in this musical clip</p>","","arousal rating","html-slider-response","19","96684","0.0-2.0-5.2","mr02t2o5o3n8nu8","","","","62"
"null","<div style=""font-size:60px;"">+</div>","null","fixation","html-keyboard-response","20","97685","0.0-2.0-0.3","mr02t2o5o3n8nu8","","","",""
"null","<div style=""font-size:60px;color:green"">+</div>","null","fixation","html-keyboard-response","21","98187","0.0-2.0-1.3","mr02t2o5o3n8nu8","","","",""
"null","audio/19_I_hate_Everything_About_You.mp3","null","song","audio-keyboard-response","22","99190","0.0-2.0-2.3","mr02t2o5o3n8nu8","angry","","",""
"2165.245000011055","","","emotion_rating","survey-multi-choice","23","101357","0.0-2.0-3.3","mr02t2o5o3n8nu8","","{""Q0"":""Angry""}","[0]",""
"1145.6149999867193","<p>How negative/positive was this feeling expressed in this musical clip</p>","","valence rating","html-slider-response","24","102524","0.0-2.0-4.3","mr02t2o5o3n8nu8","","","","29"
"1711.1950000107754","<p>How energetic/arousing was the feeling expressed in this musical clip</p>","","arousal rating","html-slider-response","25","104236","0.0-2.0-5.3","mr02t2o5o3n8nu8","","","","30"
"null","<div style=""font-size:60px;"">+</div>","null","fixation","html-keyboard-response","26","105238","0.0-2.0-0.4","mr02t2o5o3n8nu8","","","",""
"null","<div style=""font-size:60px;color:green"">+</div>","null","fixation","html-keyboard-response","27","105739","0.0-2.0-1.4","mr02t2o5o3n8nu8","","","",""
"null","audio/13_Boser_Wolf.mp3","null","song","audio-keyboard-response","28","106741","0.0-2.0-2.4","mr02t2o5o3n8nu8","sad","","",""
"5043.444999988424","","","emotion_rating","survey-multi-choice","29","111785","0.0-2.0-3.4","mr02t2o5o3n8nu8","","{""Q0"":""Relaxed""}","[0]",""
"5781.855000008363","<p>How negative/positive was this feeling expressed in this musical clip</p>","","valence rating","html-slider-response","30","117589","0.0-2.0-4.4","mr02t2o5o3n8nu8","","","","35"
"2198.260000004666","<p>How energetic/arousing was the feeling expressed in this musical clip</p>","","arousal rating","html-slider-response","31","119789","0.0-2.0-5.4","mr02t2o5o3n8nu8","","","","12"
"null","<div style=""font-size:60px;"">+</div>","null","fixation","html-keyboard-response","32","120790","0.0-2.0-0.5","mr02t2o5o3n8nu8","","","",""
"null","<div style=""font-size:60px;color:green"">+</div>","null","fixation","html-keyboard-response","33","121292","0.0-2.0-1.5","mr02t2o5o3n8nu8","","","",""
"null","audio/9_If_The_Creeks_Don't_Rise.mp3","null","song","audio-keyboard-response","34","122293","0.0-2.0-2.5","mr02t2o5o3n8nu8","happy","","",""
"2798.145000007935","","","emotion_rating","survey-multi-choice","35","125092","0.0-2.0-3.5","mr02t2o5o3n8nu8","","{""Q0"":""Sad""}","[0]",""
"2218.9350000116974","<p>How negative/positive was this feeling expressed in this musical clip</p>","","valence rating","html-slider-response","36","127333","0.0-2.0-4.5","mr02t2o5o3n8nu8","","","","31"
"2591.7349999945145","<p>How energetic/arousing was the feeling expressed in this musical clip</p>","","arousal rating","html-slider-response","37","129925","0.0-2.0-5.5","mr02t2o5o3n8nu8","","","","13"
"null","<div style=""font-size:60px;"">+</div>","null","fixation","html-keyboard-response","38","130928","0.0-2.0-0.6","mr02t2o5o3n8nu8","","","",""
"null","<div style=""font-size:60px;color:green"">+</div>","null","fixation","html-keyboard-response","39","131429","0.0-2.0-1.6","mr02t2o5o3n8nu8","","","",""
"null","audio/8_Restless.mp3","null","song","audio-keyboard-response","40","132432","0.0-2.0-2.6","mr02t2o5o3n8nu8","happy","","",""
"2180.225000018254","","","emotion_rating","survey-multi-choice","41","134613","0.0-2.0-3.6","mr02t2o5o3n8nu8","","{""Q0"":""Happy""}","[0]",""
"1268.2349999959115","<p>How negative/positive was this feeling expressed in this musical clip</p>","","valence rating","html-slider-response","42","135902","0.0-2.0-4.6","mr02t2o5o3n8nu8","","","","86"
"1184.0999999840278","<p>How energetic/arousing was the feeling expressed in this musical clip</p>","","arousal rating","html-slider-response","43","137087","0.0-2.0-5.6","mr02t2o5o3n8nu8","","","","83"
"null","<div style=""font-size:60px;"">+</div>","null","fixation","html-keyboard-response","44","138089","0.0-2.0-0.7","mr02t2o5o3n8nu8","","","",""
"null","<div style=""font-size:60px;color:green"">+</div>","null","fixation","html-keyboard-response","45","138591","0.0-2.0-1.7","mr02t2o5o3n8nu8","","","",""
"null","audio/4_Mbube.mp3","null","song","audio-keyboard-response","46","139593","0.0-2.0-2.7","mr02t2o5o3n8nu8","relaxed","","",""
"1679.9799999862444","","","emotion_rating","survey-multi-choice","47","141275","0.0-2.0-3.7","mr02t2o5o3n8nu8","","{""Q0"":""Happy""}","[0]",""
"1121.580000006361","<p>How negative/positive was this feeling expressed in this musical clip</p>","","valence rating","html-slider-response","48","142417","0.0-2.0-4.7","mr02t2o5o3n8nu8","","","","65"
"1271.2900000042282","<p>How energetic/arousing was the feeling expressed in this musical clip</p>","","arousal rating","html-slider-response","49","143690","0.0-2.0-5.7","mr02t2o5o3n8nu8","","","","80"
"null","<div style=""font-size:60px;"">+</div>","null","fixation","html-keyboard-response","50","144691","0.0-2.0-0.8","mr02t2o5o3n8nu8","","","",""
"null","<div style=""font-size:60px;color:green"">+</div>","null","fixation","html-keyboard-response","51","145192","0.0-2.0-1.8","mr02t2o5o3n8nu8","","","",""
"null","audio/16_Restless.mp3","null","song","audio-keyboard-response","52","146196","0.0-2.0-2.8","mr02t2o5o3n8nu8","happy","","",""
"1585.480000008829","","","emotion_rating","survey-multi-choice","53","147783","0.0-2.0-3.8","mr02t2o5o3n8nu8","","{""Q0"":""Happy""}","[0]",""
"1208.119999995688","<p>How negative/positive was this feeling expressed in this musical clip</p>","","valence rating","html-slider-response","54","149012","0.0-2.0-4.8","mr02t2o5o3n8nu8","","","","82"
"1216.5150000073481","<p>How energetic/arousing was the feeling expressed in this musical clip</p>","","arousal rating","html-slider-response","55","150230","0.0-2.0-5.8","mr02t2o5o3n8nu8","","","","93"
"null","<div style=""font-size:60px;"">+</div>","null","fixation","html-keyboard-response","56","151231","0.0-2.0-0.9","mr02t2o5o3n8nu8","","","",""
"null","<div style=""font-size:60px;color:green"">+</div>","null","fixation","html-keyboard-response","57","151733","0.0-2.0-1.9","mr02t2o5o3n8nu8","","","",""
"null","audio/3_Old_Blacktop_[Album_Version].mp3","null","song","audio-keyboard-response","58","152737","0.0-2.0-2.9","mr02t2o5o3n8nu8","sad","","",""
"1419.3949999753386","","","emotion_rating","survey-multi-choice","59","154158","0.0-2.0-3.9","mr02t2o5o3n8nu8","","{""Q0"":""Sad""}","[0]",""
"1091.0399999993388","<p>How negative/positive was this feeling expressed in this musical clip</p>","","valence rating","html-slider-response","60","155270","0.0-2.0-4.9","mr02t2o5o3n8nu8","","","","34"
"1025.164999999106","<p>How energetic/arousing was the feeling expressed in this musical clip</p>","","arousal rating","html-slider-response","61","156297","0.0-2.0-5.9","mr02t2o5o3n8nu8","","","","11"
"null","<div style=""font-size:60px;"">+</div>","null","fixation","html-keyboard-response","62","157298","0.0-2.0-0.10","mr02t2o5o3n8nu8","","","",""
"null","<div style=""font-size:60px;color:green"">+</div>","null","fixation","html-keyboard-response","63","157800","0.0-2.0-1.10","mr02t2o5o3n8nu8","","","",""
"null","audio/7_Here_Today.mp3","null","song","audio-keyboard-response","64","158802","0.0-2.0-2.10","mr02t2o5o3n8nu8","sad","","",""
"1398.300000000745","","","emotion_rating","survey-multi-choice","65","160201","0.0-2.0-3.10","mr02t2o5o3n8nu8","","{""Q0"":""Sad""}","[0]",""
"1159.1849999967963","<p>How negative/positive was this feeling expressed in this musical clip</p>","","valence rating","html-slider-response","66","161382","0.0-2.0-4.10","mr02t2o5o3n8nu8","","","","33"
"1398.3299999963492","<p>How energetic/arousing was the feeling expressed in this musical clip</p>","","arousal rating","html-slider-response","67","162781","0.0-2.0-5.10","mr02t2o5o3n8nu8","","","","21"
"null","<div style=""font-size:60px;"">+</div>","null","fixation","html-keyboard-response","68","163783","0.0-2.0-0.11","mr02t2o5o3n8nu8","","","",""
"null","<div style=""font-size:60px;color:green"">+</div>","null","fixation","html-keyboard-response","69","164284","0.0-2.0-1.11","mr02t2o5o3n8nu8","","","",""
"null","audio/12_Skinny_Love.mp3","null","song","audio-keyboard-response","70","165287","0.0-2.0-2.11","mr02t2o5o3n8nu8","sad","","",""
"1411.3049999868963","","","emotion_rating","survey-multi-choice","71","166700","0.0-2.0-3.11","mr02t2o5o3n8nu8","","{""Q0"":""Sad""}","[0]",""
"5639.085000002524","<p>How negative/positive was this feeling expressed in this musical clip</p>","","valence rating","html-slider-response","72","172360","0.0-2.0-4.11","mr02t2o5o3n8nu8","","","","31"
"2446.204999985639","<p>How energetic/arousing was the feeling expressed in this musical clip</p>","","arousal rating","html-slider-response","73","174807","0.0-2.0-5.11","mr02t2o5o3n8nu8","","","","20"
"null","<div style=""font-size:60px;"">+</div>","null","fixation","html-keyboard-response","74","175808","0.0-2.0-0.12","mr02t2o5o3n8nu8","","","",""
"null","<div style=""font-size:60px;color:green"">+</div>","null","fixation","html-keyboard-response","75","176310","0.0-2.0-1.12","mr02t2o5o3n8nu8","","","",""
"null","audio/11_Be_Happy.mp3","null","song","audio-keyboard-response","76","177312","0.0-2.0-2.12","mr02t2o5o3n8nu8","happy","","",""
"2806.2150000187103","","","emotion_rating","survey-multi-choice","77","180119","0.0-2.0-3.12","mr02t2o5o3n8nu8","","{""Q0"":""Happy""}","[0]",""
"1451.230000006035","<p>How negative/positive was this feeling expressed in this musical clip</p>","","valence rating","html-slider-response","78","181591","0.0-2.0-4.12","mr02t2o5o3n8nu8","","","","59"
"1238.4099999908358","<p>How energetic/arousing was the feeling expressed in this musical clip</p>","","arousal rating","html-slider-response","79","182831","0.0-2.0-5.12","mr02t2o5o3n8nu8","","","","55"
"null","<div style=""font-size:60px;"">+</div>","null","fixation","html-keyboard-response","80","183832","0.0-2.0-0.13","mr02t2o5o3n8nu8","","","",""
"null","<div style=""font-size:60px;color:green"">+</div>","null","fixation","html-keyboard-response","81","184332","0.0-2.0-1.13","mr02t2o5o3n8nu8","","","",""
"null","audio/3_Walk_on_the_wild_side.mp3","null","song","audio-keyboard-response","82","185335","0.0-2.0-2.13","mr02t2o5o3n8nu8","relaxed","","",""
"2483.3099999814294","","","emotion_rating","survey-multi-choice","83","187821","0.0-2.0-3.13","mr02t2o5o3n8nu8","","{""Q0"":""Relaxed""}","[0]",""
"2631.120000005467","<p>How negative/positive was this feeling expressed in this musical clip</p>","","valence rating","html-slider-response","84","190474","0.0-2.0-4.13","mr02t2o5o3n8nu8","","","","59"
"1494.6650000056252","<p>How energetic/arousing was the feeling expressed in this musical clip</p>","","arousal rating","html-slider-response","85","191969","0.0-2.0-5.13","mr02t2o5o3n8nu8","","","","63"
"null","<div style=""font-size:60px;"">+</div>","null","fixation","html-keyboard-response","86","192971","0.0-2.0-0.14","mr02t2o5o3n8nu8","","","",""
"null","<div style=""font-size:60px;color:green"">+</div>","null","fixation","html-keyboard-response","87","193473","0.0-2.0-1.14","mr02t2o5o3n8nu8","","","",""
"null","audio/13_Motown_Junk.mp3","null","song","audio-keyboard-response","88","194475","0.0-2.0-2.14","mr02t2o5o3n8nu8","angry","","",""
"1613.9250000123866","","","emotion_rating","survey-multi-choice","89","196090","0.0-2.0-3.14","mr02t2o5o3n8nu8","","{""Q0"":""Angry""}","[0]",""
"1376.4249999949243","<p>How negative/positive was this feeling expressed in this musical clip</p>","","valence rating","html-slider-response","90","197487","0.0-2.0-4.14","mr02t2o5o3n8nu8","","","","22"
"1101.9000000087544","<p>How energetic/arousing was the feeling expressed in this musical clip</p>","","arousal rating","html-slider-response","91","198590","0.0-2.0-5.14","mr02t2o5o3n8nu8","","","","8"
"null","<div style=""font-size:60px;"">+</div>","null","fixation","html-keyboard-response","92","199592","0.0-2.0-0.15","mr02t2o5o3n8nu8","","","",""
"null","<div style=""font-size:60px;color:green"">+</div>","null","fixation","html-keyboard-response","93","200095","0.0-2.0-1.15","mr02t2o5o3n8nu8","","","",""
"null","audio/15_Here_Today.mp3","null","song","audio-keyboard-response","94","201099","0.0-2.0-2.15","mr02t2o5o3n8nu8","sad","","",""
"4763.779999979306","","","emotion_rating","survey-multi-choice","95","205864","0.0-2.0-3.15","mr02t2o5o3n8nu8","","{""Q0"":""Sad""}","[0]",""
"1089.139999996405","<p>How negative/positive was this feeling expressed in this musical clip</p>","","valence rating","html-slider-response","96","206975","0.0-2.0-4.15","mr02t2o5o3n8nu8","","","","35"
"1827.369999984512","<p>How energetic/arousing was the feeling expressed in this musical clip</p>","","arousal rating","html-slider-response","97","208803","0.0-2.0-5.15","mr02t2o5o3n8nu8","","","","30"
"null","<div style=""font-size:60px;"">+</div>","null","fixation","html-keyboard-response","98","209806","0.0-2.0-0.16","mr02t2o5o3n8nu8","","","",""
"null","<div style=""font-size:60px;color:green"">+</div>","null","fixation","html-keyboard-response","99","210308","0.0-2.0-1.16","mr02t2o5o3n8nu8","","","",""
"null","audio/26_It_Only_Hurts_When_I'm_Breathing.mp3","null","song","audio-keyboard-response","100","211310","0.0-2.0-2.16","mr02t2o5o3n8nu8","sad","","",""
"2561.840000009397","","","emotion_rating","survey-multi-choice","101","213873","0.0-2.0-3.16","mr02t2o5o3n8nu8","","{""Q0"":""Sad""}","[0]",""
"1133.044999995036","<p>How negative/positive was this feeling expressed in this musical clip</p>","","valence rating","html-slider-response","102","215028","0.0-2.0-4.16","mr02t2o5o3n8nu8","","","","34"
"1883.029999997234","<p>How energetic/arousing was the feeling expressed in this musical clip</p>","","arousal rating","html-slider-response","103","216912","0.0-2.0-5.16","mr02t2o5o3n8nu8","","","","30"
"null","<div style=""font-size:60px;"">+</div>","null","fixation","html-keyboard-response","104","217914","0.0-2.0-0.17","mr02t2o5o3n8nu8","","","",""
"null","<div style=""font-size:60px;color:green"">+</div>","null","fixation","html-keyboard-response","105","218416","0.0-2.0-1.17","mr02t2o5o3n8nu8","","","",""
"null","audio/4_Make_Light.mp3","null","song","audio-keyboard-response","106","219418","0.0-2.0-2.17","mr02t2o5o3n8nu8","happy","","",""
"3828.190000000177","","","emotion_rating","survey-multi-choice","107","223247","0.0-2.0-3.17","mr02t2o5o3n8nu8","","{""Q0"":""Relaxed""}","[0]",""
"1984.5550000027288","<p>How negative/positive was this feeling expressed in this musical clip</p>","","valence rating","html-slider-response","108","225256","0.0-2.0-4.17","mr02t2o5o3n8nu8","","","","63"
"2326.774999994086","<p>How energetic/arousing was the feeling expressed in this musical clip</p>","","arousal rating","html-slider-response","109","227584","0.0-2.0-5.17","mr02t2o5o3n8nu8","","","","32"
"null","<div style=""font-size:60px;"">+</div>","null","fixation","html-keyboard-response","110","228585","0.0-2.0-0.18","mr02t2o5o3n8nu8","","","",""
"null","<div style=""font-size:60px;color:green"">+</div>","null","fixation","html-keyboard-response","111","229087","0.0-2.0-1.18","mr02t2o5o3n8nu8","","","",""
"null","audio/2_Love's_Requiem.mp3","null","song","audio-keyboard-response","112","230090","0.0-2.0-2.18","mr02t2o5o3n8nu8","sad","","",""
"2005.8400000270922","","","emotion_rating","survey-multi-choice","113","232097","0.0-2.0-3.18","mr02t2o5o3n8nu8","","{""Q0"":""Sad""}","[0]",""
"1116.9150000205263","<p>How negative/positive was this feeling expressed in this musical clip</p>","","valence rating","html-slider-response","114","233236","0.0-2.0-4.18","mr02t2o5o3n8nu8","","","","18"
"959.3149999855086","<p>How energetic/arousing was the feeling expressed in this musical clip</p>","","arousal rating","html-slider-response","115","234196","0.0-2.0-5.18","mr02t2o5o3n8nu8","","","","15"
"null","<div style=""font-size:60px;"">+</div>","null","fixation","html-keyboard-response","116","235198","0.0-2.0-0.19","mr02t2o5o3n8nu8","","","",""
"null","<div style=""font-size:60px;color:green"">+</div>","null","fixation","html-keyboard-response","117","235700","0.0-2.0-1.19","mr02t2o5o3n8nu8","","","",""
"null","audio/5_Love's_Requiem.mp3","null","song","audio-keyboard-response","118","236702","0.0-2.0-2.19","mr02t2o5o3n8nu8","sad","","",""
"2379.690000001574","","","emotion_rating","survey-multi-choice","119","239083","0.0-2.0-3.19","mr02t2o5o3n8nu8","","{""Q0"":""Sad""}","[0]",""
"860.8199999725912","<p>How negative/positive was this feeling expressed in this musical clip</p>","","valence rating","html-slider-response","120","239964","0.0-2.0-4.19","mr02t2o5o3n8nu8","","","","27"
"869.2250000021886","<p>How energetic/arousing was the feeling expressed in this musical clip</p>","","arousal rating","html-slider-response","121","240834","0.0-2.0-5.19","mr02t2o5o3n8nu8","","","","7"
"null","<div style=""font-size:60px;"">+</div>","null","fixation","html-keyboard-response","122","241836","0.0-2.0-0.20","mr02t2o5o3n8nu8","","","",""
"null","<div style=""font-size:60px;color:green"">+</div>","null","fixation","html-keyboard-response","123","242337","0.0-2.0-1.20","mr02t2o5o3n8nu8","","","",""
"null","audio/28_Valerie.mp3","null","song","audio-keyboard-response","124","243339","0.0-2.0-2.20","mr02t2o5o3n8nu8","happy","","",""
"1789.4800000067335","","","emotion_rating","survey-multi-choice","125","245129","0.0-2.0-3.20","mr02t2o5o3n8nu8","","{""Q0"":""Happy""}","[0]",""
"7178.5950000048615","<p>How negative/positive was this feeling expressed in this musical clip</p>","","valence rating","html-slider-response","126","252329","0.0-2.0-4.20","mr02t2o5o3n8nu8","","","","71"
"1565.6050000106916","<p>How energetic/arousing was the feeling expressed in this musical clip</p>","","arousal rating","html-slider-response","127","253896","0.0-2.0-5.20","mr02t2o5o3n8nu8","","","","72"
"null","<div style=""font-size:60px;"">+</div>","null","fixation","html-keyboard-response","128","254897","0.0-2.0-0.21","mr02t2o5o3n8nu8","","","",""
"null","<div style=""font-size:60px;color:green"">+</div>","null","fixation","html-keyboard-response","129","255399","0.0-2.0-1.21","mr02t2o5o3n8nu8","","","",""
"null","audio/1_Skinny_Love.mp3","null","song","audio-keyboard-response","130","256401","0.0-2.0-2.21","mr02t2o5o3n8nu8","sad","","",""
"3977.0250000001397","","","emotion_rating","survey-multi-choice","131","260380","0.0-2.0-3.21","mr02t2o5o3n8nu8","","{""Q0"":""Sad""}","[0]",""
"1588.4950000036042","<p>How negative/positive was this feeling expressed in this musical clip</p>","","valence rating","html-slider-response","132","261990","0.0-2.0-4.21","mr02t2o5o3n8nu8","","","","39"
"912.2299999871757","<p>How energetic/arousing was the feeling expressed in this musical clip</p>","","arousal rating","html-slider-response","133","262903","0.0-2.0-5.21","mr02t2o5o3n8nu8","","","","27"
"null","<div style=""font-size:60px;"">+</div>","null","fixation","html-keyboard-response","134","263905","0.0-2.0-0.22","mr02t2o5o3n8nu8","","","",""
"null","<div style=""font-size:60px;color:green"">+</div>","null","fixation","html-keyboard-response","135","264406","0.0-2.0-1.22","mr02t2o5o3n8nu8","","","",""
"null","audio/5_Valerie.mp3","null","song","audio-keyboard-response","136","265408","0.0-2.0-2.22","mr02t2o5o3n8nu8","happy","","",""
"1280.109999992419","","","emotion_rating","survey-multi-choice","137","266688","0.0-2.0-3.22","mr02t2o5o3n8nu8","","{""Q0"":""Happy""}","[0]",""
"1856.8450000020675","<p>How negative/positive was this feeling expressed in this musical clip</p>","","valence rating","html-slider-response","138","268568","0.0-2.0-4.22","mr02t2o5o3n8nu8","","","","68"
"1124.8650000197813","<p>How energetic/arousing was the feeling expressed in this musical clip</p>","","arousal rating","html-slider-response","139","269693","0.0-2.0-5.22","mr02t2o5o3n8nu8","","","","78"
"null","<div style=""font-size:60px;"">+</div>","null","fixation","html-keyboard-response","140","270694","0.0-2.0-0.23","mr02t2o5o3n8nu8","","","",""
"null","<div style=""font-size:60px;color:green"">+</div>","null","fixation","html-keyboard-response","141","271195","0.0-2.0-1.23","mr02t2o5o3n8nu8","","","",""
"null","audio/7_Digital.mp3","null","song","audio-keyboard-response","142","272196","0.0-2.0-2.23","mr02t2o5o3n8nu8","relaxed","","",""
"2743.4749999956694","","","emotion_rating","survey-multi-choice","143","274940","0.0-2.0-3.23","mr02t2o5o3n8nu8","","{""Q0"":""None of these""}","[0]",""
"482.40499998792075","<p>How negative/positive was this feeling expressed in this musical clip</p>","","valence rating","html-slider-response","144","275444","0.0-2.0-4.23","mr02t2o5o3n8nu8","","","","50"
"325.8700000005774","<p>How energetic/arousing was the feeling expressed in this musical clip</p>","","arousal rating","html-slider-response","145","275771","0.0-2.0-5.23","mr02t2o5o3n8nu8","","","","50"
"null","<div style=""font-size:60px;"">+</div>","null","fixation","html-keyboard-response","146","276774","0.0-2.0-0.24","mr02t2o5o3n8nu8","","","",""
"null","<div style=""font-size:60px;color:green"">+</div>","null","fixation","html-keyboard-response","147","277276","0.0-2.0-1.24","mr02t2o5o3n8nu8","","","",""
"null","audio/4_Come_On_Baby.mp3","null","song","audio-keyboard-response","148","278278","0.0-2.0-2.24","mr02t2o5o3n8nu8","relaxed","","",""
"3587.115000002086","","","emotion_rating","survey-multi-choice","149","281866","0.0-2.0-3.24","mr02t2o5o3n8nu8","","{""Q0"":""Relaxed""}","[0]",""
"1495.2350000094157","<p>How negative/positive was this feeling expressed in this musical clip</p>","","valence rating","html-slider-response","150","283383","0.0-2.0-4.24","mr02t2o5o3n8nu8","","","","28"
"1124.084999988554","<p>How energetic/arousing was the feeling expressed in this musical clip</p>","","arousal rating","html-slider-response","151","284508","0.0-2.0-5.24","mr02t2o5o3n8nu8","","","","24"
"null","<div style=""font-size:60px;"">+</div>","null","fixation","html-keyboard-response","152","285510","0.0-2.0-0.25","mr02t2o5o3n8nu8","","","",""
"null","<div style=""font-size:60px;color:green"">+</div>","null","fixation","html-keyboard-response","153","286012","0.0-2.0-1.25","mr02t2o5o3n8nu8","","","",""
"null","audio/12_Skank_Down.mp3","null","song","audio-keyboard-response","154","287013","0.0-2.0-2.25","mr02t2o5o3n8nu8","happy","","",""
"2819.794999988517","","","emotion_rating","survey-multi-choice","155","289833","0.0-2.0-3.25","mr02t2o5o3n8nu8","","{""Q0"":""Happy""}","[0]",""
"3611.5800000261515","<p>How negative/positive was this feeling expressed in this musical clip</p>","","valence rating","html-slider-response","156","293466","0.0-2.0-4.25","mr02t2o5o3n8nu8","","","","33"
"1245.1299999956973","<p>How energetic/arousing was the feeling expressed in this musical clip</p>","","arousal rating","html-slider-response","157","294712","0.0-2.0-5.25","mr02t2o5o3n8nu8","","","","70"
"null","<div style=""font-size:60px;"">+</div>","null","fixation","html-keyboard-response","158","295714","0.0-2.0-0.26","mr02t2o5o3n8nu8","","","",""
"null","<div style=""font-size:60px;color:green"">+</div>","null","fixation","html-keyboard-response","159","296216","0.0-2.0-1.26","mr02t2o5o3n8nu8","","","",""
"null","audio/5_Get_Lucky.mp3","null","song","audio-keyboard-response","160","297219","0.0-2.0-2.26","mr02t2o5o3n8nu8","happy","","",""
"2365.2450000226963","","","emotion_rating","survey-multi-choice","161","299586","0.0-2.0-3.26","mr02t2o5o3n8nu8","","{""Q0"":""Relaxed""}","[0]",""
"1803.1499999924563","<p>How negative/positive was this feeling expressed in this musical clip</p>","","valence rating","html-slider-response","162","301411","0.0-2.0-4.26","mr02t2o5o3n8nu8","","","","38"
"1439.0399999974761","<p>How energetic/arousing was the feeling expressed in this musical clip</p>","","arousal rating","html-slider-response","163","302850","0.0-2.0-5.26","mr02t2o5o3n8nu8","","","","71"
"null","<div style=""font-size:60px;"">+</div>","null","fixation","html-keyboard-response","164","303852","0.0-2.0-0.27","mr02t2o5o3n8nu8","","","",""
"null","<div style=""font-size:60px;color:green"">+</div>","null","fixation","html-keyboard-response","165","304354","0.0-2.0-1.27","mr02t2o5o3n8nu8","","","",""
"null","audio/13_If_The_Creeks_Don't_Rise.mp3","null","song","audio-keyboard-response","166","305355","0.0-2.0-2.27","mr02t2o5o3n8nu8","happy","","",""
"1519.0999999758787","","","emotion_rating","survey-multi-choice","167","306875","0.0-2.0-3.27","mr02t2o5o3n8nu8","","{""Q0"":""Relaxed""}","[0]",""
"2997.1000000077765","<p>How negative/positive was this feeling expressed in this musical clip</p>","","valence rating","html-slider-response","168","309893","0.0-2.0-4.27","mr02t2o5o3n8nu8","","","","77"
"1902.9049999953713","<p>How energetic/arousing was the feeling expressed in this musical clip</p>","","arousal rating","html-slider-response","169","311798","0.0-2.0-5.27","mr02t2o5o3n8nu8","","","","61"
"null","<div style=""font-size:60px;"">+</div>","null","fixation","html-keyboard-response","170","312800","0.0-2.0-0.28","mr02t2o5o3n8nu8","","","",""
"null","<div style=""font-size:60px;color:green"">+</div>","null","fixation","html-keyboard-response","171","313302","0.0-2.0-1.28","mr02t2o5o3n8nu8","","","",""
"null","audio/25_Old_Blacktop_[Album_Version].mp3","null","song","audio-keyboard-response","172","314304","0.0-2.0-2.28","mr02t2o5o3n8nu8","sad","","",""
"4519.650000002002","","","emotion_rating","survey-multi-choice","173","318825","0.0-2.0-3.28","mr02t2o5o3n8nu8","","{""Q0"":""None of these""}","[0]",""
"1366.3649999944028","<p>How negative/positive was this feeling expressed in this musical clip</p>","","valence rating","html-slider-response","174","320213","0.0-2.0-4.28","mr02t2o5o3n8nu8","","","","37"
"3505.4700000036974","<p>How energetic/arousing was the feeling expressed in this musical clip</p>","","arousal rating","html-slider-response","175","323719","0.0-2.0-5.28","mr02t2o5o3n8nu8","","","","36"
"null","<div style=""font-size:60px;"">+</div>","null","fixation","html-keyboard-response","176","324721","0.0-2.0-0.29","mr02t2o5o3n8nu8","","","",""
"null","<div style=""font-size:60px;color:green"">+</div>","null","fixation","html-keyboard-response","177","325222","0.0-2.0-1.29","mr02t2o5o3n8nu8","","","",""
"null","audio/1_Be_Happy.mp3","null","song","audio-keyboard-response","178","326224","0.0-2.0-2.29","mr02t2o5o3n8nu8","happy","","",""
"3268.5749999945983","","","emotion_rating","survey-multi-choice","179","329493","0.0-2.0-3.29","mr02t2o5o3n8nu8","","{""Q0"":""Sad""}","[0]",""
"1586.1499999882653","<p>How negative/positive was this feeling expressed in this musical clip</p>","","valence rating","html-slider-response","180","331101","0.0-2.0-4.29","mr02t2o5o3n8nu8","","","","36"
"989.449999993667","<p>How energetic/arousing was the feeling expressed in this musical clip</p>","","arousal rating","html-slider-response","181","332091","0.0-2.0-5.29","mr02t2o5o3n8nu8","","","","59"
"null","<div style=""font-size:60px;"">+</div>","null","fixation","html-keyboard-response","182","333093","0.0-2.0-0.30","mr02t2o5o3n8nu8","","","",""
"null","<div style=""font-size:60px;color:green"">+</div>","null","fixation","html-keyboard-response","183","333595","0.0-2.0-1.30","mr02t2o5o3n8nu8","","","",""
"null","audio/2_Sweet_Song.mp3","null","song","audio-keyboard-response","184","334597","0.0-2.0-2.30","mr02t2o5o3n8nu8","relaxed","","",""
"1761.4199999952689","","","emotion_rating","survey-multi-choice","185","336359","0.0-2.0-3.30","mr02t2o5o3n8nu8","","{""Q0"":""Sad""}","[0]",""
"1413.6799999978393","<p>How negative/positive was this feeling expressed in this musical clip</p>","","valence rating","html-slider-response","186","337795","0.0-2.0-4.30","mr02t2o5o3n8nu8","","","","33"
"1291.0700000065845","<p>How energetic/arousing was the feeling expressed in this musical clip</p>","","arousal rating","html-slider-response","187","339086","0.0-2.0-5.30","mr02t2o5o3n8nu8","","","","15"
"null","<div style=""font-size:60px;"">+</div>","null","fixation","html-keyboard-response","188","340088","0.0-2.0-0.31","mr02t2o5o3n8nu8","","","",""
"null","<div style=""font-size:60px;color:green"">+</div>","null","fixation","html-keyboard-response","189","340591","0.0-2.0-1.31","mr02t2o5o3n8nu8","","","",""
"null","audio/14_Get_Lucky.mp3","null","song","audio-keyboard-response","190","341593","0.0-2.0-2.31","mr02t2o5o3n8nu8","happy","","",""
"10256.970000016736","","","emotion_rating","survey-multi-choice","191","351852","0.0-2.0-3.31","mr02t2o5o3n8nu8","","{""Q0"":""None of these""}","[0]",""
"1810.2850000141189","<p>How negative/positive was this feeling expressed in this musical clip</p>","","valence rating","html-slider-response","192","353683","0.0-2.0-4.31","mr02t2o5o3n8nu8","","","","30"
"957.1649999998044","<p>How energetic/arousing was the feeling expressed in this musical clip</p>","","arousal rating","html-slider-response","193","354641","0.0-2.0-5.31","mr02t2o5o3n8nu8","","","","56"
"null","<div style=""font-size:60px;"">+</div>","null","fixation","html-keyboard-response","194","355642","0.0-2.0-0.32","mr02t2o5o3n8nu8","","","",""
"null","<div style=""font-size:60px;color:green"">+</div>","null","fixation","html-keyboard-response","195","356144","0.0-2.0-1.32","mr02t2o5o3n8nu8","","","",""
"null","audio/2_Boser_Wolf.mp3","null","song","audio-keyboard-response","196","357147","0.0-2.0-2.32","mr02t2o5o3n8nu8","sad","","",""
"5722.3550000053365","","","emotion_rating","survey-multi-choice","197","362871","0.0-2.0-3.32","mr02t2o5o3n8nu8","","{""Q0"":""Sad""}","[0]",""
"1764.7949999955017","<p>How negative/positive was this feeling expressed in this musical clip</p>","","valence rating","html-slider-response","198","364657","0.0-2.0-4.32","mr02t2o5o3n8nu8","","","","35"
"1282.7500000130385","<p>How energetic/arousing was the feeling expressed in this musical clip</p>","","arousal rating","html-slider-response","199","365940","0.0-2.0-5.32","mr02t2o5o3n8nu8","","","","23"
"null","<div style=""font-size:60px;"">+</div>","null","fixation","html-keyboard-response","200","366941","0.0-2.0-0.33","mr02t2o5o3n8nu8","","","",""
"null","<div style=""font-size:60px;color:green"">+</div>","null","fixation","html-keyboard-response","201","367442","0.0-2.0-1.33","mr02t2o5o3n8nu8","","","",""
"null","audio/2_Blood_On_The_Ground.mp3","null","song","audio-keyboard-response","202","368443","0.0-2.0-2.33","mr02t2o5o3n8nu8","angry","","",""
"1429.8200000193901","","","emotion_rating","survey-multi-choice","203","369875","0.0-2.0-3.33","mr02t2o5o3n8nu8","","{""Q0"":""Angry""}","[0]",""
"2758.00000000163","<p>How negative/positive was this feeling expressed in this musical clip</p>","","valence rating","html-slider-response","204","372655","0.0-2.0-4.33","mr02t2o5o3n8nu8","","","","20"
"1657.0599999977276","<p>How energetic/arousing was the feeling expressed in this musical clip</p>","","arousal rating","html-slider-response","205","374313","0.0-2.0-5.33","mr02t2o5o3n8nu8","","","","74"
"null","<div style=""font-size:60px;"">+</div>","null","fixation","html-keyboard-response","206","375314","0.0-2.0-0.34","mr02t2o5o3n8nu8","","","",""
"null","<div style=""font-size:60px;color:green"">+</div>","null","fixation","html-keyboard-response","207","375816","0.0-2.0-1.34","mr02t2o5o3n8nu8","","","",""
"null","audio/2_On_A_Slow_Boat_To_China.mp3","null","song","audio-keyboard-response","208","376817","0.0-2.0-2.34","mr02t2o5o3n8nu8","relaxed","","",""
"2562.724999996135","","","emotion_rating","survey-multi-choice","209","379381","0.0-2.0-3.34","mr02t2o5o3n8nu8","","{""Q0"":""Relaxed""}","[0]",""
"2111.0050000133924","<p>How negative/positive was this feeling expressed in this musical clip</p>","","valence rating","html-slider-response","210","381515","0.0-2.0-4.34","mr02t2o5o3n8nu8","","","","71"
"1105.329999991227","<p>How energetic/arousing was the feeling expressed in this musical clip</p>","","arousal rating","html-slider-response","211","382621","0.0-2.0-5.34","mr02t2o5o3n8nu8","","","","10"
"null","<div style=""font-size:60px;"">+</div>","null","fixation","html-keyboard-response","212","383621","0.0-2.0-0.35","mr02t2o5o3n8nu8","","","",""
"null","<div style=""font-size:60px;color:green"">+</div>","null","fixation","html-keyboard-response","213","384123","0.0-2.0-1.35","mr02t2o5o3n8nu8","","","",""
"null","audio/21_Skank_Down.mp3","null","song","audio-keyboard-response","214","385125","0.0-2.0-2.35","mr02t2o5o3n8nu8","happy","","",""
"2377.2449999814853","","","emotion_rating","survey-multi-choice","215","387504","0.0-2.0-3.35","mr02t2o5o3n8nu8","","{""Q0"":""Angry""}","[0]",""
"2533.6200000019744","<p>How negative/positive was this feeling expressed in this musical clip</p>","","valence rating","html-slider-response","216","390059","0.0-2.0-4.35","mr02t2o5o3n8nu8","","","","31"
"1103.0700000119396","<p>How energetic/arousing was the feeling expressed in this musical clip</p>","","arousal rating","html-slider-response","217","391163","0.0-2.0-5.35","mr02t2o5o3n8nu8","","","","75"
"null","<div style=""font-size:60px;"">+</div>","null","fixation","html-keyboard-response","218","392165","0.0-2.0-0.36","mr02t2o5o3n8nu8","","","",""
"null","<div style=""font-size:60px;color:green"">+</div>","null","fixation","html-keyboard-response","219","392666","0.0-2.0-1.36","mr02t2o5o3n8nu8","","","",""
"null","audio/23_Inside.mp3","null","song","audio-keyboard-response","220","393669","0.0-2.0-2.36","mr02t2o5o3n8nu8","sad","","",""
"1417.7849999978207","","","emotion_rating","survey-multi-choice","221","395088","0.0-2.0-3.36","mr02t2o5o3n8nu8","","{""Q0"":""Sad""}","[0]",""
"2204.349999985425","<p>How negative/positive was this feeling expressed in this musical clip</p>","","valence rating","html-slider-response","222","397314","0.0-2.0-4.36","mr02t2o5o3n8nu8","","","","26"
"1038.750000006985","<p>How energetic/arousing was the feeling expressed in this musical clip</p>","","arousal rating","html-slider-response","223","398353","0.0-2.0-5.36","mr02t2o5o3n8nu8","","","","20"
"null","<div style=""font-size:60px;"">+</div>","null","fixation","html-keyboard-response","224","399357","0.0-2.0-0.37","mr02t2o5o3n8nu8","","","",""
"null","<div style=""font-size:60px;color:green"">+</div>","null","fixation","html-keyboard-response","225","399859","0.0-2.0-1.37","mr02t2o5o3n8nu8","","","",""
"null","audio/2_Inside.mp3","null","song","audio-keyboard-response","226","400861","0.0-2.0-2.37","mr02t2o5o3n8nu8","sad","","",""
"1426.6199999838136","","","emotion_rating","survey-multi-choice","227","402288","0.0-2.0-3.37","mr02t2o5o3n8nu8","","{""Q0"":""Sad""}","[0]",""
"1179.4799999915995","<p>How negative/positive was this feeling expressed in this musical clip</p>","","valence rating","html-slider-response","228","403490","0.0-2.0-4.37","mr02t2o5o3n8nu8","","","","26"
"949.0500000247266","<p>How energetic/arousing was the feeling expressed in this musical clip</p>","","arousal rating","html-slider-response","229","404440","0.0-2.0-5.37","mr02t2o5o3n8nu8","","","","18"
"null","<div style=""font-size:60px;"">+</div>","null","fixation","html-keyboard-response","230","405442","0.0-2.0-0.38","mr02t2o5o3n8nu8","","","",""
"null","<div style=""font-size:60px;color:green"">+</div>","null","fixation","html-keyboard-response","231","405943","0.0-2.0-1.38","mr02t2o5o3n8nu8","","","",""
"null","audio/1_The_Sweetest.mp3","null","song","audio-keyboard-response","232","406947","0.0-2.0-2.38","mr02t2o5o3n8nu8","relaxed","","",""
"2471.349999977974","","","emotion_rating","survey-multi-choice","233","409419","0.0-2.0-3.38","mr02t2o5o3n8nu8","","{""Q0"":""Relaxed""}","[0]",""
"2548.530000000028","<p>How negative/positive was this feeling expressed in this musical clip</p>","","valence rating","html-slider-response","234","411989","0.0-2.0-4.38","mr02t2o5o3n8nu8","","","","60"
"1001.3899999903515","<p>How energetic/arousing was the feeling expressed in this musical clip</p>","","arousal rating","html-slider-response","235","412992","0.0-2.0-5.38","mr02t2o5o3n8nu8","","","","70"
"null","<div style=""font-size:60px;"">+</div>","null","fixation","html-keyboard-response","236","413993","0.0-2.0-0.39","mr02t2o5o3n8nu8","","","",""
"null","<div style=""font-size:60px;color:green"">+</div>","null","fixation","html-keyboard-response","237","414494","0.0-2.0-1.39","mr02t2o5o3n8nu8","","","",""
"null","audio/15_Bunkertor_7_(German_Texture).mp3","null","song","audio-keyboard-response","238","415495","0.0-2.0-2.39","mr02t2o5o3n8nu8","angry","","",""
"1864.5499999984168","","","emotion_rating","survey-multi-choice","239","417361","0.0-2.0-3.39","mr02t2o5o3n8nu8","","{""Q0"":""Angry""}","[0]",""
"1552.0050000050105","<p>How negative/positive was this feeling expressed in this musical clip</p>","","valence rating","html-slider-response","240","418935","0.0-2.0-4.39","mr02t2o5o3n8nu8","","","","15"
"1160.9849999949802","<p>How energetic/arousing was the feeling expressed in this musical clip</p>","","arousal rating","html-slider-response","241","420097","0.0-2.0-5.39","mr02t2o5o3n8nu8","","","","79"
"null","<div style=""font-size:60px;"">+</div>","null","fixation","html-keyboard-response","242","421098","0.0-2.0-0.40","mr02t2o5o3n8nu8","","","",""
"null","<div style=""font-size:60px;color:green"">+</div>","null","fixation","html-keyboard-response","243","421599","0.0-2.0-1.40","mr02t2o5o3n8nu8","","","",""
"null","audio/4_Destiny.mp3","null","song","audio-keyboard-response","244","422601","0.0-2.0-2.40","mr02t2o5o3n8nu8","relaxed","","",""
"1910.9650000173133","","","emotion_rating","survey-multi-choice","245","424513","0.0-2.0-3.40","mr02t2o5o3n8nu8","","{""Q0"":""Happy""}","[0]",""
"3933.4649999800604","<p>How negative/positive was this feeling expressed in this musical clip</p>","","valence rating","html-slider-response","246","428468","0.0-2.0-4.40","mr02t2o5o3n8nu8","","","","65"
"1143.770000024233","<p>How energetic/arousing was the feeling expressed in this musical clip</p>","","arousal rating","html-slider-response","247","429613","0.0-2.0-5.40","mr02t2o5o3n8nu8","","","","77"
"null","<div style=""font-size:60px;"">+</div>","null","fixation","html-keyboard-response","248","430615","0.0-2.0-0.41","mr02t2o5o3n8nu8","","","",""
"null","<div style=""font-size:60px;color:green"">+</div>","null","fixation","html-keyboard-response","249","431117","0.0-2.0-1.41","mr02t2o5o3n8nu8","","","",""
"null","audio/24_Restless.mp3","null","song","audio-keyboard-response","250","432119","0.0-2.0-2.41","mr02t2o5o3n8nu8","happy","","",""
"3460.67500000936","","","emotion_rating","survey-multi-choice","251","435581","0.0-2.0-3.41","mr02t2o5o3n8nu8","","{""Q0"":""Happy""}","[0]",""
"3945.5899999884423","<p>How negative/positive was this feeling expressed in this musical clip</p>","","valence rating","html-slider-response","252","439550","0.0-2.0-4.41","mr02t2o5o3n8nu8","","","","67"
"2501.734999998007","<p>How energetic/arousing was the feeling expressed in this musical clip</p>","","arousal rating","html-slider-response","253","442052","0.0-2.0-5.41","mr02t2o5o3n8nu8","","","","67"
"null","<div style=""font-size:60px;"">+</div>","null","fixation","html-keyboard-response","254","443055","0.0-2.0-0.42","mr02t2o5o3n8nu8","","","",""
"null","<div style=""font-size:60px;color:green"">+</div>","null","fixation","html-keyboard-response","255","443556","0.0-2.0-1.42","mr02t2o5o3n8nu8","","","",""
"null","audio/2_Incomplete.mp3","null","song","audio-keyboard-response","256","444558","0.0-2.0-2.42","mr02t2o5o3n8nu8","angry","","",""
"3463.5849999904167","","","emotion_rating","survey-multi-choice","257","448023","0.0-2.0-3.42","mr02t2o5o3n8nu8","","{""Q0"":""Sad""}","[0]",""
"1520.9200000099372","<p>How negative/positive was this feeling expressed in this musical clip</p>","","valence rating","html-slider-response","258","449565","0.0-2.0-4.42","mr02t2o5o3n8nu8","","","","26"
"937.9049999988638","<p>How energetic/arousing was the feeling expressed in this musical clip</p>","","arousal rating","html-slider-response","259","450504","0.0-2.0-5.42","mr02t2o5o3n8nu8","","","","72"
"null","<div style=""font-size:60px;"">+</div>","null","fixation","html-keyboard-response","260","451507","0.0-2.0-0.43","mr02t2o5o3n8nu8","","","",""
"null","<div style=""font-size:60px;color:green"">+</div>","null","fixation","html-keyboard-response","261","452009","0.0-2.0-1.43","mr02t2o5o3n8nu8","","","",""
"null","audio/8_Fire_And_Rain__(LP_Version).mp3","null","song","audio-keyboard-response","262","453011","0.0-2.0-2.43","mr02t2o5o3n8nu8","sad","","",""
"1288.555000006454","","","emotion_rating","survey-multi-choice","263","454301","0.0-2.0-3.43","mr02t2o5o3n8nu8","","{""Q0"":""Sad""}","[0]",""
"1114.1899999929592","<p>How negative/positive was this feeling expressed in this musical clip</p>","","valence rating","html-slider-response","264","455444","0.0-2.0-4.43","mr02t2o5o3n8nu8","","","","24"
"1368.8949999923352","<p>How energetic/arousing was the feeling expressed in this musical clip</p>","","arousal rating","html-slider-response","265","456814","0.0-2.0-5.43","mr02t2o5o3n8nu8","","","","76"
"null","<div style=""font-size:60px;"">+</div>","null","fixation","html-keyboard-response","266","457816","0.0-2.0-0.44","mr02t2o5o3n8nu8","","","",""
"null","<div style=""font-size:60px;color:green"">+</div>","null","fixation","html-keyboard-response","267","458318","0.0-2.0-1.44","mr02t2o5o3n8nu8","","","",""
"null","audio/12_Fire_And_Rain_(LP_Version).mp3","null","song","audio-keyboard-response","268","459322","0.0-2.0-2.44","mr02t2o5o3n8nu8","sad","","",""
"3277.4650000210386","","","emotion_rating","survey-multi-choice","269","462600","0.0-2.0-3.44","mr02t2o5o3n8nu8","","{""Q0"":""Sad""}","[0]",""
"6507.50499998685","<p>How negative/positive was this feeling expressed in this musical clip</p>","","valence rating","html-slider-response","270","469130","0.0-2.0-4.44","mr02t2o5o3n8nu8","","","","22"
"2536.2399999867193","<p>How energetic/arousing was the feeling expressed in this musical clip</p>","","arousal rating","html-slider-response","271","471667","0.0-2.0-5.44","mr02t2o5o3n8nu8","","","","29"
