"rt","stimulus","key_press","test_part","trial_type","trial_index","time_elapsed","internal_node_id","subject","target","responses","question_order","response"
"121802.16500000097","Welcome to the experiment. Press any key to begin.","76","welcome","html-keyboard-response","0","121803","0.0-0.0","esfsup646pd4dc3","","","",""
"21565.33999997191","<p>In this study you will hear a short musical clip and then make some ratings about the emotion it expresses or conveys</p><p>First you will select which emotion you think the musical clip is expressing</p><p>You will then rate how pleasant the feeling expressed in the musical clip was and also how energetic it was</p><p>Press the space bar to begin</p>","32","instruction","html-keyboard-response","1","143369","0.0-1.0","esfsup646pd4dc3","","","",""
"null","<div style=""font-size:60px;"">+</div>","null","fixation","html-keyboard-response","2","144375","0.0-2.0-0.0","esfsup646pd4dc3","","","",""
"null","<div style=""font-size:60px;color:green"">+</div>","null","fixation","html-keyboard-response","3","144877","0.0-2.0-1.0","esfsup646pd4dc3","","","",""
"null","audio/9_If_The_Creeks_Don't_Rise.mp3","null","song","audio-keyboard-response","4","145881","0.0-2.0-2.0","esfsup646pd4dc3","happy","","",""
"10110.300000058487","","","emotion_rating","survey-multi-choice","5","155993","0.0-2.0-3.0","esfsup646pd4dc3","","{""Q0"":""Happy""}","[0]",""
"4709.520000033081","<p>How negative/positive was this feeling expressed in this musical clip</p>","","valence rating","html-slider-response","6","160706","0.0-2.0-4.0","esfsup646pd4dc3","","","","76"
"4836.430000024848","<p>How energetic/arousing was the feeling expressed in this musical clip</p>","","arousal rating","html-slider-response","7","165544","0.0-2.0-5.0","esfsup646pd4dc3","","","","64"
"null","<div style=""font-size:60px;"">+</div>","null","fixation","html-keyboard-response","8","166549","0.0-2.0-0.1","esfsup646pd4dc3","","","",""
"null","<div style=""font-size:60px;color:green"">+</div>","null","fixation","html-keyboard-response","9","167053","0.0-2.0-1.1","esfsup646pd4dc3","","","",""
"null","audio/9_Pain_(Live_Version).mp3","null","song","audio-keyboard-response","10","168058","0.0-2.0-2.1","esfsup646pd4dc3","angry","","",""
"6586.630000034347","","","emotion_rating","survey-multi-choice","11","174646","0.0-2.0-3.1","esfsup646pd4dc3","","{""Q0"":""None of these""}","[0]",""
"13654.17500003241","<p>How negative/positive was this feeling expressed in this musical clip</p>","","valence rating","html-slider-response","12","188303","0.0-2.0-4.1","esfsup646pd4dc3","","","","42"
"3475.4399999510497","<p>How energetic/arousing was the feeling expressed in this musical clip</p>","","arousal rating","html-slider-response","13","191779","0.0-2.0-5.1","esfsup646pd4dc3","","","","72"
"null","<div style=""font-size:60px;"">+</div>","null","fixation","html-keyboard-response","14","192780","0.0-2.0-0.2","esfsup646pd4dc3","","","",""
"null","<div style=""font-size:60px;color:green"">+</div>","null","fixation","html-keyboard-response","15","193281","0.0-2.0-1.2","esfsup646pd4dc3","","","",""
"null","audio/4_Destiny.mp3","null","song","audio-keyboard-response","16","194287","0.0-2.0-2.2","esfsup646pd4dc3","relaxed","","",""
"7347.360000014305","","","emotion_rating","survey-multi-choice","17","201635","0.0-2.0-3.2","esfsup646pd4dc3","","{""Q0"":""Relaxed""}","[0]",""
"3102.100000018254","<p>How negative/positive was this feeling expressed in this musical clip</p>","","valence rating","html-slider-response","18","204740","0.0-2.0-4.2","esfsup646pd4dc3","","","","58"
"5973.014999995939","<p>How energetic/arousing was the feeling expressed in this musical clip</p>","","arousal rating","html-slider-response","19","210714","0.0-2.0-5.2","esfsup646pd4dc3","","","","56"
"null","<div style=""font-size:60px;"">+</div>","null","fixation","html-keyboard-response","20","211718","0.0-2.0-0.3","esfsup646pd4dc3","","","",""
"null","<div style=""font-size:60px;color:green"">+</div>","null","fixation","html-keyboard-response","21","212223","0.0-2.0-1.3","esfsup646pd4dc3","","","",""
"null","audio/2_Incomplete.mp3","null","song","audio-keyboard-response","22","213227","0.0-2.0-2.3","esfsup646pd4dc3","angry","","",""
"23518.819999997504","","","emotion_rating","survey-multi-choice","23","236746","0.0-2.0-3.3","esfsup646pd4dc3","","{""Q0"":""Angry""}","[0]",""
"3720.060000079684","<p>How negative/positive was this feeling expressed in this musical clip</p>","","valence rating","html-slider-response","24","240470","0.0-2.0-4.3","esfsup646pd4dc3","","","","50"
"2733.2850000821054","<p>How energetic/arousing was the feeling expressed in this musical clip</p>","","arousal rating","html-slider-response","25","243204","0.0-2.0-5.3","esfsup646pd4dc3","","","","59"
"null","<div style=""font-size:60px;"">+</div>","null","fixation","html-keyboard-response","26","244206","0.0-2.0-0.4","esfsup646pd4dc3","","","",""
"null","<div style=""font-size:60px;color:green"">+</div>","null","fixation","html-keyboard-response","27","244710","0.0-2.0-1.4","esfsup646pd4dc3","","","",""
"null","audio/19_I_hate_Everything_About_You.mp3","null","song","audio-keyboard-response","28","245713","0.0-2.0-2.4","esfsup646pd4dc3","angry","","",""
"6468.029999989085","","","emotion_rating","survey-multi-choice","29","252182","0.0-2.0-3.4","esfsup646pd4dc3","","{""Q0"":""Sad""}","[0]",""
"5779.385000001639","<p>How negative/positive was this feeling expressed in this musical clip</p>","","valence rating","html-slider-response","30","257964","0.0-2.0-4.4","esfsup646pd4dc3","","","","43"
"4015.0500000454485","<p>How energetic/arousing was the feeling expressed in this musical clip</p>","","arousal rating","html-slider-response","31","261980","0.0-2.0-5.4","esfsup646pd4dc3","","","","62"
"null","<div style=""font-size:60px;"">+</div>","null","fixation","html-keyboard-response","32","262982","0.0-2.0-0.5","esfsup646pd4dc3","","","",""
"null","<div style=""font-size:60px;color:green"">+</div>","null","fixation","html-keyboard-response","33","263487","0.0-2.0-1.5","esfsup646pd4dc3","","","",""
"null","audio/1_The_Sweetest.mp3","null","song","audio-keyboard-response","34","264489","0.0-2.0-2.5","esfsup646pd4dc3","relaxed","","",""
"15434.869999997318","","","emotion_rating","survey-multi-choice","35","279925","0.0-2.0-3.5","esfsup646pd4dc3","","{""Q0"":""Relaxed""}","[0]",""
"4316.329999943264","<p>How negative/positive was this feeling expressed in this musical clip</p>","","valence rating","html-slider-response","36","284244","0.0-2.0-4.5","esfsup646pd4dc3","","","","59"
"9370.555000030436","<p>How energetic/arousing was the feeling expressed in this musical clip</p>","","arousal rating","html-slider-response","37","293616","0.0-2.0-5.5","esfsup646pd4dc3","","","","43"
"null","<div style=""font-size:60px;"">+</div>","null","fixation","html-keyboard-response","38","294622","0.0-2.0-0.6","esfsup646pd4dc3","","","",""
"null","<div style=""font-size:60px;color:green"">+</div>","null","fixation","html-keyboard-response","39","295126","0.0-2.0-1.6","esfsup646pd4dc3","","","",""
"null","audio/8_Restless.mp3","null","song","audio-keyboard-response","40","296130","0.0-2.0-2.6","esfsup646pd4dc3","happy","","",""
"8330.54999995511","","","emotion_rating","survey-multi-choice","41","304461","0.0-2.0-3.6","esfsup646pd4dc3","","{""Q0"":""None of these""}","[0]",""
"7759.454999933951","<p>How negative/positive was this feeling expressed in this musical clip</p>","","valence rating","html-slider-response","42","312224","0.0-2.0-4.6","esfsup646pd4dc3","","","","55"
"2620.200000004843","<p>How energetic/arousing was the feeling expressed in this musical clip</p>","","arousal rating","html-slider-response","43","314845","0.0-2.0-5.6","esfsup646pd4dc3","","","","59"
"null","<div style=""font-size:60px;"">+</div>","null","fixation","html-keyboard-response","44","315846","0.0-2.0-0.7","esfsup646pd4dc3","","","",""
"null","<div style=""font-size:60px;color:green"">+</div>","null","fixation","html-keyboard-response","45","316349","0.0-2.0-1.7","esfsup646pd4dc3","","","",""
"null","audio/1_Be_Happy.mp3","null","song","audio-keyboard-response","46","317352","0.0-2.0-2.7","esfsup646pd4dc3","happy","","",""
"12106.905000051484","","","emotion_rating","survey-multi-choice","47","329459","0.0-2.0-3.7","esfsup646pd4dc3","","{""Q0"":""Happy""}","[0]",""
"5396.775000030175","<p>How negative/positive was this feeling expressed in this musical clip</p>","","valence rating","html-slider-response","48","334859","0.0-2.0-4.7","esfsup646pd4dc3","","","","56"
"3317.5500000361353","<p>How energetic/arousing was the feeling expressed in this musical clip</p>","","arousal rating","html-slider-response","49","338177","0.0-2.0-5.7","esfsup646pd4dc3","","","","59"
"null","<div style=""font-size:60px;"">+</div>","null","fixation","html-keyboard-response","50","339183","0.0-2.0-0.8","esfsup646pd4dc3","","","",""
"null","<div style=""font-size:60px;color:green"">+</div>","null","fixation","html-keyboard-response","51","339688","0.0-2.0-1.8","esfsup646pd4dc3","","","",""
"null","audio/3_Walk_on_the_wild_side.mp3","null","song","audio-keyboard-response","52","340691","0.0-2.0-2.8","esfsup646pd4dc3","relaxed","","",""
"5991.780000040308","","","emotion_rating","survey-multi-choice","53","346683","0.0-2.0-3.8","esfsup646pd4dc3","","{""Q0"":""Relaxed""}","[0]",""
"2673.6549999332055","<p>How negative/positive was this feeling expressed in this musical clip</p>","","valence rating","html-slider-response","54","349361","0.0-2.0-4.8","esfsup646pd4dc3","","","","54"
"2834.1150000924245","<p>How energetic/arousing was the feeling expressed in this musical clip</p>","","arousal rating","html-slider-response","55","352196","0.0-2.0-5.8","esfsup646pd4dc3","","","","55"
"null","<div style=""font-size:60px;"">+</div>","null","fixation","html-keyboard-response","56","353197","0.0-2.0-0.9","esfsup646pd4dc3","","","",""
"null","<div style=""font-size:60px;color:green"">+</div>","null","fixation","html-keyboard-response","57","353703","0.0-2.0-1.9","esfsup646pd4dc3","","","",""
"null","audio/2_Love's_Requiem.mp3","null","song","audio-keyboard-response","58","354705","0.0-2.0-2.9","esfsup646pd4dc3","sad","","",""
"5613.015000009909","","","emotion_rating","survey-multi-choice","59","360318","0.0-2.0-3.9","esfsup646pd4dc3","","{""Q0"":""Sad""}","[0]",""
"3494.7249999968335","<p>How negative/positive was this feeling expressed in this musical clip</p>","","valence rating","html-slider-response","60","363817","0.0-2.0-4.9","esfsup646pd4dc3","","","","44"
"5882.914999965578","<p>How energetic/arousing was the feeling expressed in this musical clip</p>","","arousal rating","html-slider-response","61","369701","0.0-2.0-5.9","esfsup646pd4dc3","","","","40"
"null","<div style=""font-size:60px;"">+</div>","null","fixation","html-keyboard-response","62","370702","0.0-2.0-0.10","esfsup646pd4dc3","","","",""
"null","<div style=""font-size:60px;color:green"">+</div>","null","fixation","html-keyboard-response","63","371207","0.0-2.0-1.10","esfsup646pd4dc3","","","",""
"null","audio/7_Here_Today.mp3","null","song","audio-keyboard-response","64","372209","0.0-2.0-2.10","esfsup646pd4dc3","sad","","",""
"5478.690000018105","","","emotion_rating","survey-multi-choice","65","377688","0.0-2.0-3.10","esfsup646pd4dc3","","{""Q0"":""Sad""}","[0]",""
"4238.494999939576","<p>How negative/positive was this feeling expressed in this musical clip</p>","","valence rating","html-slider-response","66","381930","0.0-2.0-4.10","esfsup646pd4dc3","","","","44"
"2755.8250000001863","<p>How energetic/arousing was the feeling expressed in this musical clip</p>","","arousal rating","html-slider-response","67","384687","0.0-2.0-5.10","esfsup646pd4dc3","","","","43"
"null","<div style=""font-size:60px;"">+</div>","null","fixation","html-keyboard-response","68","385688","0.0-2.0-0.11","esfsup646pd4dc3","","","",""
"null","<div style=""font-size:60px;color:green"">+</div>","null","fixation","html-keyboard-response","69","386192","0.0-2.0-1.11","esfsup646pd4dc3","","","",""
"null","audio/1_Skinny_Love.mp3","null","song","audio-keyboard-response","70","387194","0.0-2.0-2.11","esfsup646pd4dc3","sad","","",""
"4309.200000017881","","","emotion_rating","survey-multi-choice","71","391504","0.0-2.0-3.11","esfsup646pd4dc3","","{""Q0"":""Sad""}","[0]",""
"3067.65500002075","<p>How negative/positive was this feeling expressed in this musical clip</p>","","valence rating","html-slider-response","72","394575","0.0-2.0-4.11","esfsup646pd4dc3","","","","40"
"3296.295000007376","<p>How energetic/arousing was the feeling expressed in this musical clip</p>","","arousal rating","html-slider-response","73","397872","0.0-2.0-5.11","esfsup646pd4dc3","","","","38"
"null","<div style=""font-size:60px;"">+</div>","null","fixation","html-keyboard-response","74","398873","0.0-2.0-0.12","esfsup646pd4dc3","","","",""
"null","<div style=""font-size:60px;color:green"">+</div>","null","fixation","html-keyboard-response","75","399375","0.0-2.0-1.12","esfsup646pd4dc3","","","",""
"null","audio/7_Digital.mp3","null","song","audio-keyboard-response","76","400381","0.0-2.0-2.12","esfsup646pd4dc3","relaxed","","",""
"6996.634999988601","","","emotion_rating","survey-multi-choice","77","407378","0.0-2.0-3.12","esfsup646pd4dc3","","{""Q0"":""None of these""}","[0]",""
"1627.9199999989942","<p>How negative/positive was this feeling expressed in this musical clip</p>","","valence rating","html-slider-response","78","409009","0.0-2.0-4.12","esfsup646pd4dc3","","","","47"
"2877.4400000693277","<p>How energetic/arousing was the feeling expressed in this musical clip</p>","","arousal rating","html-slider-response","79","411889","0.0-2.0-5.12","esfsup646pd4dc3","","","","55"
"null","<div style=""font-size:60px;"">+</div>","null","fixation","html-keyboard-response","80","412890","0.0-2.0-0.13","esfsup646pd4dc3","","","",""
"null","<div style=""font-size:60px;color:green"">+</div>","null","fixation","html-keyboard-response","81","413392","0.0-2.0-1.13","esfsup646pd4dc3","","","",""
"null","audio/4_Mbube.mp3","null","song","audio-keyboard-response","82","414397","0.0-2.0-2.13","esfsup646pd4dc3","relaxed","","",""
"4140.200000023469","","","emotion_rating","survey-multi-choice","83","418538","0.0-2.0-3.13","esfsup646pd4dc3","","{""Q0"":""Happy""}","[0]",""
"2482.8299999935552","<p>How negative/positive was this feeling expressed in this musical clip</p>","","valence rating","html-slider-response","84","421024","0.0-2.0-4.13","esfsup646pd4dc3","","","","57"
"3565.3849999653175","<p>How energetic/arousing was the feeling expressed in this musical clip</p>","","arousal rating","html-slider-response","85","424590","0.0-2.0-5.13","esfsup646pd4dc3","","","","63"
"null","<div style=""font-size:60px;"">+</div>","null","fixation","html-keyboard-response","86","425595","0.0-2.0-0.14","esfsup646pd4dc3","","","",""
"null","<div style=""font-size:60px;color:green"">+</div>","null","fixation","html-keyboard-response","87","426096","0.0-2.0-1.14","esfsup646pd4dc3","","","",""
"null","audio/26_It_Only_Hurts_When_I'm_Breathing.mp3","null","song","audio-keyboard-response","88","427101","0.0-2.0-2.14","esfsup646pd4dc3","sad","","",""
"5004.395000054501","","","emotion_rating","survey-multi-choice","89","432106","0.0-2.0-3.14","esfsup646pd4dc3","","{""Q0"":""Sad""}","[0]",""
"6780.484999995679","<p>How negative/positive was this feeling expressed in this musical clip</p>","","valence rating","html-slider-response","90","438890","0.0-2.0-4.14","esfsup646pd4dc3","","","","44"
"5849.099999992177","<p>How energetic/arousing was the feeling expressed in this musical clip</p>","","arousal rating","html-slider-response","91","444740","0.0-2.0-5.14","esfsup646pd4dc3","","","","58"
"null","<div style=""font-size:60px;"">+</div>","null","fixation","html-keyboard-response","92","445742","0.0-2.0-0.15","esfsup646pd4dc3","","","",""
"null","<div style=""font-size:60px;color:green"">+</div>","null","fixation","html-keyboard-response","93","446246","0.0-2.0-1.15","esfsup646pd4dc3","","","",""
"null","audio/2_Inside.mp3","null","song","audio-keyboard-response","94","447250","0.0-2.0-2.15","esfsup646pd4dc3","sad","","",""
"6005.9800000162795","","","emotion_rating","survey-multi-choice","95","453257","0.0-2.0-3.15","esfsup646pd4dc3","","{""Q0"":""Sad""}","[0]",""
"3730.600000009872","<p>How negative/positive was this feeling expressed in this musical clip</p>","","valence rating","html-slider-response","96","456991","0.0-2.0-4.15","esfsup646pd4dc3","","","","46"
"9044.280000030994","<p>How energetic/arousing was the feeling expressed in this musical clip</p>","","arousal rating","html-slider-response","97","466036","0.0-2.0-5.15","esfsup646pd4dc3","","","","55"
"null","<div style=""font-size:60px;"">+</div>","null","fixation","html-keyboard-response","98","467038","0.0-2.0-0.16","esfsup646pd4dc3","","","",""
"null","<div style=""font-size:60px;color:green"">+</div>","null","fixation","html-keyboard-response","99","467543","0.0-2.0-1.16","esfsup646pd4dc3","","","",""
"null","audio/12_Fire_And_Rain_(LP_Version).mp3","null","song","audio-keyboard-response","100","468547","0.0-2.0-2.16","esfsup646pd4dc3","sad","","",""
"5003.43000004068","","","emotion_rating","survey-multi-choice","101","473552","0.0-2.0-3.16","esfsup646pd4dc3","","{""Q0"":""None of these""}","[0]",""
"8423.004999989644","<p>How negative/positive was this feeling expressed in this musical clip</p>","","valence rating","html-slider-response","102","481978","0.0-2.0-4.16","esfsup646pd4dc3","","","","52"
"62235.519999987446","<p>How energetic/arousing was the feeling expressed in this musical clip</p>","","arousal rating","html-slider-response","103","544214","0.0-2.0-5.16","esfsup646pd4dc3","","","","46"
"null","<div style=""font-size:60px;"">+</div>","null","fixation","html-keyboard-response","104","545216","0.0-2.0-0.17","esfsup646pd4dc3","","","",""
"null","<div style=""font-size:60px;color:green"">+</div>","null","fixation","html-keyboard-response","105","545719","0.0-2.0-1.17","esfsup646pd4dc3","","","",""
"null","audio/2_On_A_Slow_Boat_To_China.mp3","null","song","audio-keyboard-response","106","546724","0.0-2.0-2.17","esfsup646pd4dc3","relaxed","","",""
"5600.310000008903","","","emotion_rating","survey-multi-choice","107","552325","0.0-2.0-3.17","esfsup646pd4dc3","","{""Q0"":""Relaxed""}","[0]",""
"5779.439999954775","<p>How negative/positive was this feeling expressed in this musical clip</p>","","valence rating","html-slider-response","108","558108","0.0-2.0-4.17","esfsup646pd4dc3","","","","55"
"2676.4899999834597","<p>How energetic/arousing was the feeling expressed in this musical clip</p>","","arousal rating","html-slider-response","109","560785","0.0-2.0-5.17","esfsup646pd4dc3","","","","50"
"null","<div style=""font-size:60px;"">+</div>","null","fixation","html-keyboard-response","110","561786","0.0-2.0-0.18","esfsup646pd4dc3","","","",""
"null","<div style=""font-size:60px;color:green"">+</div>","null","fixation","html-keyboard-response","111","562288","0.0-2.0-1.18","esfsup646pd4dc3","","","",""
"null","audio/15_Here_Today.mp3","null","song","audio-keyboard-response","112","563292","0.0-2.0-2.18","esfsup646pd4dc3","sad","","",""
"5997.510000015609","","","emotion_rating","survey-multi-choice","113","569291","0.0-2.0-3.18","esfsup646pd4dc3","","{""Q0"":""Relaxed""}","[0]",""
"2584.125000052154","<p>How negative/positive was this feeling expressed in this musical clip</p>","","valence rating","html-slider-response","114","571878","0.0-2.0-4.18","esfsup646pd4dc3","","","","43"
"2238.3099999278784","<p>How energetic/arousing was the feeling expressed in this musical clip</p>","","arousal rating","html-slider-response","115","574117","0.0-2.0-5.18","esfsup646pd4dc3","","","","46"
"null","<div style=""font-size:60px;"">+</div>","null","fixation","html-keyboard-response","116","575120","0.0-2.0-0.19","esfsup646pd4dc3","","","",""
"null","<div style=""font-size:60px;color:green"">+</div>","null","fixation","html-keyboard-response","117","575624","0.0-2.0-1.19","esfsup646pd4dc3","","","",""
"null","audio/3_It_Only_Hurts_When_I'm_Breathing.mp3","null","song","audio-keyboard-response","118","576629","0.0-2.0-2.19","esfsup646pd4dc3","sad","","",""
"6847.475000075065","","","emotion_rating","survey-multi-choice","119","583477","0.0-2.0-3.19","esfsup646pd4dc3","","{""Q0"":""Sad""}","[0]",""
"2831.495000049472","<p>How negative/positive was this feeling expressed in this musical clip</p>","","valence rating","html-slider-response","120","586312","0.0-2.0-4.19","esfsup646pd4dc3","","","","44"
"1528.855000040494","<p>How energetic/arousing was the feeling expressed in this musical clip</p>","","arousal rating","html-slider-response","121","587842","0.0-2.0-5.19","esfsup646pd4dc3","","","","57"
"null","<div style=""font-size:60px;"">+</div>","null","fixation","html-keyboard-response","122","588843","0.0-2.0-0.20","esfsup646pd4dc3","","","",""
"null","<div style=""font-size:60px;color:green"">+</div>","null","fixation","html-keyboard-response","123","589349","0.0-2.0-1.20","esfsup646pd4dc3","","","",""
"null","audio/5_Valerie.mp3","null","song","audio-keyboard-response","124","590351","0.0-2.0-2.20","esfsup646pd4dc3","happy","","",""
"8233.725000056438","","","emotion_rating","survey-multi-choice","125","598586","0.0-2.0-3.20","esfsup646pd4dc3","","{""Q0"":""None of these""}","[0]",""
"3979.6649999916553","<p>How negative/positive was this feeling expressed in this musical clip</p>","","valence rating","html-slider-response","126","602569","0.0-2.0-4.20","esfsup646pd4dc3","","","","46"
"2046.265000011772","<p>How energetic/arousing was the feeling expressed in this musical clip</p>","","arousal rating","html-slider-response","127","604616","0.0-2.0-5.20","esfsup646pd4dc3","","","","60"
"null","<div style=""font-size:60px;"">+</div>","null","fixation","html-keyboard-response","128","605622","0.0-2.0-0.21","esfsup646pd4dc3","","","",""
"null","<div style=""font-size:60px;color:green"">+</div>","null","fixation","html-keyboard-response","129","606124","0.0-2.0-1.21","esfsup646pd4dc3","","","",""
"null","audio/4_Make_Light.mp3","null","song","audio-keyboard-response","130","607129","0.0-2.0-2.21","esfsup646pd4dc3","happy","","",""
"4270.604999968782","","","emotion_rating","survey-multi-choice","131","611400","0.0-2.0-3.21","esfsup646pd4dc3","","{""Q0"":""Happy""}","[0]",""
"4361.210000002757","<p>How negative/positive was this feeling expressed in this musical clip</p>","","valence rating","html-slider-response","132","615765","0.0-2.0-4.21","esfsup646pd4dc3","","","","60"
"4116.690000053495","<p>How energetic/arousing was the feeling expressed in this musical clip</p>","","arousal rating","html-slider-response","133","619882","0.0-2.0-5.21","esfsup646pd4dc3","","","","62"
"null","<div style=""font-size:60px;"">+</div>","null","fixation","html-keyboard-response","134","620884","0.0-2.0-0.22","esfsup646pd4dc3","","","",""
"null","<div style=""font-size:60px;color:green"">+</div>","null","fixation","html-keyboard-response","135","621386","0.0-2.0-1.22","esfsup646pd4dc3","","","",""
"null","audio/2_Blood_On_The_Ground.mp3","null","song","audio-keyboard-response","136","622388","0.0-2.0-2.22","esfsup646pd4dc3","angry","","",""
"10600.830000010319","","","emotion_rating","survey-multi-choice","137","632990","0.0-2.0-3.22","esfsup646pd4dc3","","{""Q0"":""Happy""}","[0]",""
"3337.279999977909","<p>How negative/positive was this feeling expressed in this musical clip</p>","","valence rating","html-slider-response","138","636330","0.0-2.0-4.22","esfsup646pd4dc3","","","","53"
"2068.885000073351","<p>How energetic/arousing was the feeling expressed in this musical clip</p>","","arousal rating","html-slider-response","139","638400","0.0-2.0-5.22","esfsup646pd4dc3","","","","69"
"null","<div style=""font-size:60px;"">+</div>","null","fixation","html-keyboard-response","140","639405","0.0-2.0-0.23","esfsup646pd4dc3","","","",""
"null","<div style=""font-size:60px;color:green"">+</div>","null","fixation","html-keyboard-response","141","639910","0.0-2.0-1.23","esfsup646pd4dc3","","","",""
"null","audio/8_Fire_And_Rain__(LP_Version).mp3","null","song","audio-keyboard-response","142","640914","0.0-2.0-2.23","esfsup646pd4dc3","sad","","",""
"16994.189999997616","","","emotion_rating","survey-multi-choice","143","657908","0.0-2.0-3.23","esfsup646pd4dc3","","{""Q0"":""None of these""}","[0]",""
"2381.1299999943003","<p>How negative/positive was this feeling expressed in this musical clip</p>","","valence rating","html-slider-response","144","660293","0.0-2.0-4.23","esfsup646pd4dc3","","","","45"
"2778.0099998926744","<p>How energetic/arousing was the feeling expressed in this musical clip</p>","","arousal rating","html-slider-response","145","663072","0.0-2.0-5.23","esfsup646pd4dc3","","","","56"
"null","<div style=""font-size:60px;"">+</div>","null","fixation","html-keyboard-response","146","664076","0.0-2.0-0.24","esfsup646pd4dc3","","","",""
"null","<div style=""font-size:60px;color:green"">+</div>","null","fixation","html-keyboard-response","147","664580","0.0-2.0-1.24","esfsup646pd4dc3","","","",""
"null","audio/4_Come_On_Baby.mp3","null","song","audio-keyboard-response","148","665585","0.0-2.0-2.24","esfsup646pd4dc3","relaxed","","",""
"3280.1899999612942","","","emotion_rating","survey-multi-choice","149","668866","0.0-2.0-3.24","esfsup646pd4dc3","","{""Q0"":""Relaxed""}","[0]",""
"2494.6149999741465","<p>How negative/positive was this feeling expressed in this musical clip</p>","","valence rating","html-slider-response","150","671363","0.0-2.0-4.24","esfsup646pd4dc3","","","","42"
"5016.454999917187","<p>How energetic/arousing was the feeling expressed in this musical clip</p>","","arousal rating","html-slider-response","151","676381","0.0-2.0-5.24","esfsup646pd4dc3","","","","47"
"null","<div style=""font-size:60px;"">+</div>","null","fixation","html-keyboard-response","152","677381","0.0-2.0-0.25","esfsup646pd4dc3","","","",""
"null","<div style=""font-size:60px;color:green"">+</div>","null","fixation","html-keyboard-response","153","677886","0.0-2.0-1.25","esfsup646pd4dc3","","","",""
"null","audio/2_Boser_Wolf.mp3","null","song","audio-keyboard-response","154","678891","0.0-2.0-2.25","esfsup646pd4dc3","sad","","",""
"7547.099999967031","","","emotion_rating","survey-multi-choice","155","686439","0.0-2.0-3.25","esfsup646pd4dc3","","{""Q0"":""Relaxed""}","[0]",""
"2538.8399999355897","<p>How negative/positive was this feeling expressed in this musical clip</p>","","valence rating","html-slider-response","156","688981","0.0-2.0-4.25","esfsup646pd4dc3","","","","61"
"3914.10499997437","<p>How energetic/arousing was the feeling expressed in this musical clip</p>","","arousal rating","html-slider-response","157","692896","0.0-2.0-5.25","esfsup646pd4dc3","","","","54"
"null","<div style=""font-size:60px;"">+</div>","null","fixation","html-keyboard-response","158","693897","0.0-2.0-0.26","esfsup646pd4dc3","","","",""
"null","<div style=""font-size:60px;color:green"">+</div>","null","fixation","html-keyboard-response","159","694402","0.0-2.0-1.26","esfsup646pd4dc3","","","",""
"null","audio/25_Old_Blacktop_[Album_Version].mp3","null","song","audio-keyboard-response","160","695407","0.0-2.0-2.26","esfsup646pd4dc3","sad","","",""
"8525.215000030585","","","emotion_rating","survey-multi-choice","161","703933","0.0-2.0-3.26","esfsup646pd4dc3","","{""Q0"":""Sad""}","[0]",""
"2134.5999999903142","<p>How negative/positive was this feeling expressed in this musical clip</p>","","valence rating","html-slider-response","162","706070","0.0-2.0-4.26","esfsup646pd4dc3","","","","47"
"5173.884999938309","<p>How energetic/arousing was the feeling expressed in this musical clip</p>","","arousal rating","html-slider-response","163","711245","0.0-2.0-5.26","esfsup646pd4dc3","","","","54"
"null","<div style=""font-size:60px;"">+</div>","null","fixation","html-keyboard-response","164","712251","0.0-2.0-0.27","esfsup646pd4dc3","","","",""
"null","<div style=""font-size:60px;color:green"">+</div>","null","fixation","html-keyboard-response","165","712756","0.0-2.0-1.27","esfsup646pd4dc3","","","",""
"null","audio/26_Make_Light.mp3","null","song","audio-keyboard-response","166","713757","0.0-2.0-2.27","esfsup646pd4dc3","happy","","",""
"8164.364999975078","","","emotion_rating","survey-multi-choice","167","721922","0.0-2.0-3.27","esfsup646pd4dc3","","{""Q0"":""None of these""}","[0]",""
"4012.3000000603497","<p>How negative/positive was this feeling expressed in this musical clip</p>","","valence rating","html-slider-response","168","725938","0.0-2.0-4.27","esfsup646pd4dc3","","","","59"
"2710.2100000483915","<p>How energetic/arousing was the feeling expressed in this musical clip</p>","","arousal rating","html-slider-response","169","728649","0.0-2.0-5.27","esfsup646pd4dc3","","","","57"
"null","<div style=""font-size:60px;"">+</div>","null","fixation","html-keyboard-response","170","729652","0.0-2.0-0.28","esfsup646pd4dc3","","","",""
"null","<div style=""font-size:60px;color:green"">+</div>","null","fixation","html-keyboard-response","171","730154","0.0-2.0-1.28","esfsup646pd4dc3","","","",""
"null","audio/13_Motown_Junk.mp3","null","song","audio-keyboard-response","172","731159","0.0-2.0-2.28","esfsup646pd4dc3","angry","","",""
"10000.555000035092","","","emotion_rating","survey-multi-choice","173","741160","0.0-2.0-3.28","esfsup646pd4dc3","","{""Q0"":""Happy""}","[0]",""
"2786.409999942407","<p>How negative/positive was this feeling expressed in this musical clip</p>","","valence rating","html-slider-response","174","743950","0.0-2.0-4.28","esfsup646pd4dc3","","","","56"
"2788.6800001142547","<p>How energetic/arousing was the feeling expressed in this musical clip</p>","","arousal rating","html-slider-response","175","746739","0.0-2.0-5.28","esfsup646pd4dc3","","","","62"
"null","<div style=""font-size:60px;"">+</div>","null","fixation","html-keyboard-response","176","747745","0.0-2.0-0.29","esfsup646pd4dc3","","","",""
"null","<div style=""font-size:60px;color:green"">+</div>","null","fixation","html-keyboard-response","177","748248","0.0-2.0-1.29","esfsup646pd4dc3","","","",""
"null","audio/24_Restless.mp3","null","song","audio-keyboard-response","178","749249","0.0-2.0-2.29","esfsup646pd4dc3","happy","","",""
"6614.379999926314","","","emotion_rating","survey-multi-choice","179","755864","0.0-2.0-3.29","esfsup646pd4dc3","","{""Q0"":""Happy""}","[0]",""
"4519.3100000033155","<p>How negative/positive was this feeling expressed in this musical clip</p>","","valence rating","html-slider-response","180","760386","0.0-2.0-4.29","esfsup646pd4dc3","","","","59"
"2249.3800000520423","<p>How energetic/arousing was the feeling expressed in this musical clip</p>","","arousal rating","html-slider-response","181","762636","0.0-2.0-5.29","esfsup646pd4dc3","","","","61"
"null","<div style=""font-size:60px;"">+</div>","null","fixation","html-keyboard-response","182","763637","0.0-2.0-0.30","esfsup646pd4dc3","","","",""
"null","<div style=""font-size:60px;color:green"">+</div>","null","fixation","html-keyboard-response","183","764141","0.0-2.0-1.30","esfsup646pd4dc3","","","",""
"null","audio/11_Be_Happy.mp3","null","song","audio-keyboard-response","184","765144","0.0-2.0-2.30","esfsup646pd4dc3","happy","","",""
"9192.210000008345","","","emotion_rating","survey-multi-choice","185","774336","0.0-2.0-3.30","esfsup646pd4dc3","","{""Q0"":""None of these""}","[0]",""
"2190.30500005465","<p>How negative/positive was this feeling expressed in this musical clip</p>","","valence rating","html-slider-response","186","776530","0.0-2.0-4.30","esfsup646pd4dc3","","","","56"
"1415.8900000620633","<p>How energetic/arousing was the feeling expressed in this musical clip</p>","","arousal rating","html-slider-response","187","777947","0.0-2.0-5.30","esfsup646pd4dc3","","","","59"
"null","<div style=""font-size:60px;"">+</div>","null","fixation","html-keyboard-response","188","778950","0.0-2.0-0.31","esfsup646pd4dc3","","","",""
"null","<div style=""font-size:60px;color:green"">+</div>","null","fixation","html-keyboard-response","189","779455","0.0-2.0-1.31","esfsup646pd4dc3","","","",""
"null","audio/14_Get_Lucky.mp3","null","song","audio-keyboard-response","190","780456","0.0-2.0-2.31","esfsup646pd4dc3","happy","","",""
"5568.940000026487","","","emotion_rating","survey-multi-choice","191","786026","0.0-2.0-3.31","esfsup646pd4dc3","","{""Q0"":""Happy""}","[0]",""
"1616.429999936372","<p>How negative/positive was this feeling expressed in this musical clip</p>","","valence rating","html-slider-response","192","787645","0.0-2.0-4.31","esfsup646pd4dc3","","","","59"
"1787.8250000067055","<p>How energetic/arousing was the feeling expressed in this musical clip</p>","","arousal rating","html-slider-response","193","789434","0.0-2.0-5.31","esfsup646pd4dc3","","","","58"
"null","<div style=""font-size:60px;"">+</div>","null","fixation","html-keyboard-response","194","790436","0.0-2.0-0.32","esfsup646pd4dc3","","","",""
"null","<div style=""font-size:60px;color:green"">+</div>","null","fixation","html-keyboard-response","195","790938","0.0-2.0-1.32","esfsup646pd4dc3","","","",""
"null","audio/28_Valerie.mp3","null","song","audio-keyboard-response","196","791942","0.0-2.0-2.32","esfsup646pd4dc3","happy","","",""
"5501.690000062808","","","emotion_rating","survey-multi-choice","197","797445","0.0-2.0-3.32","esfsup646pd4dc3","","{""Q0"":""None of these""}","[0]",""
"2651.1249999748543","<p>How negative/positive was this feeling expressed in this musical clip</p>","","valence rating","html-slider-response","198","800099","0.0-2.0-4.32","esfsup646pd4dc3","","","","56"
"3576.8999999854714","<p>How energetic/arousing was the feeling expressed in this musical clip</p>","","arousal rating","html-slider-response","199","803676","0.0-2.0-5.32","esfsup646pd4dc3","","","","62"
"null","<div style=""font-size:60px;"">+</div>","null","fixation","html-keyboard-response","200","804679","0.0-2.0-0.33","esfsup646pd4dc3","","","",""
"null","<div style=""font-size:60px;color:green"">+</div>","null","fixation","html-keyboard-response","201","805182","0.0-2.0-1.33","esfsup646pd4dc3","","","",""
"null","audio/21_Skank_Down.mp3","null","song","audio-keyboard-response","202","806187","0.0-2.0-2.33","esfsup646pd4dc3","happy","","",""
"2889.6249999525025","","","emotion_rating","survey-multi-choice","203","809077","0.0-2.0-3.33","esfsup646pd4dc3","","{""Q0"":""Happy""}","[0]",""
"2404.3100000126287","<p>How negative/positive was this feeling expressed in this musical clip</p>","","valence rating","html-slider-response","204","811485","0.0-2.0-4.33","esfsup646pd4dc3","","","","62"
"1765.1850000256673","<p>How energetic/arousing was the feeling expressed in this musical clip</p>","","arousal rating","html-slider-response","205","813251","0.0-2.0-5.33","esfsup646pd4dc3","","","","76"
"null","<div style=""font-size:60px;"">+</div>","null","fixation","html-keyboard-response","206","814256","0.0-2.0-0.34","esfsup646pd4dc3","","","",""
"null","<div style=""font-size:60px;color:green"">+</div>","null","fixation","html-keyboard-response","207","814761","0.0-2.0-1.34","esfsup646pd4dc3","","","",""
"null","audio/12_Skank_Down.mp3","null","song","audio-keyboard-response","208","815765","0.0-2.0-2.34","esfsup646pd4dc3","happy","","",""
"4494.3500000517815","","","emotion_rating","survey-multi-choice","209","820260","0.0-2.0-3.34","esfsup646pd4dc3","","{""Q0"":""Happy""}","[0]",""
"4294.564999989234","<p>How negative/positive was this feeling expressed in this musical clip</p>","","valence rating","html-slider-response","210","824557","0.0-2.0-4.34","esfsup646pd4dc3","","","","57"
"2439.8049999726936","<p>How energetic/arousing was the feeling expressed in this musical clip</p>","","arousal rating","html-slider-response","211","826998","0.0-2.0-5.34","esfsup646pd4dc3","","","","69"
"null","<div style=""font-size:60px;"">+</div>","null","fixation","html-keyboard-response","212","827999","0.0-2.0-0.35","esfsup646pd4dc3","","","",""
"null","<div style=""font-size:60px;color:green"">+</div>","null","fixation","html-keyboard-response","213","828501","0.0-2.0-1.35","esfsup646pd4dc3","","","",""
"null","audio/12_Skinny_Love.mp3","null","song","audio-keyboard-response","214","829505","0.0-2.0-2.35","esfsup646pd4dc3","sad","","",""
"2318.8249999657273","","","emotion_rating","survey-multi-choice","215","831825","0.0-2.0-3.35","esfsup646pd4dc3","","{""Q0"":""Sad""}","[0]",""
"2156.0499999905005","<p>How negative/positive was this feeling expressed in this musical clip</p>","","valence rating","html-slider-response","216","833985","0.0-2.0-4.35","esfsup646pd4dc3","","","","38"
"4465.164999943227","<p>How energetic/arousing was the feeling expressed in this musical clip</p>","","arousal rating","html-slider-response","217","838451","0.0-2.0-5.35","esfsup646pd4dc3","","","","45"
"null","<div style=""font-size:60px;"">+</div>","null","fixation","html-keyboard-response","218","839454","0.0-2.0-0.36","esfsup646pd4dc3","","","",""
"null","<div style=""font-size:60px;color:green"">+</div>","null","fixation","html-keyboard-response","219","839954","0.0-2.0-1.36","esfsup646pd4dc3","","","",""
"null","audio/2_Sweet_Song.mp3","null","song","audio-keyboard-response","220","840956","0.0-2.0-2.36","esfsup646pd4dc3","relaxed","","",""
"3862.3399999924004","","","emotion_rating","survey-multi-choice","221","844819","0.0-2.0-3.36","esfsup646pd4dc3","","{""Q0"":""Sad""}","[0]",""
"1718.3599999407306","<p>How negative/positive was this feeling expressed in this musical clip</p>","","valence rating","html-slider-response","222","846540","0.0-2.0-4.36","esfsup646pd4dc3","","","","44"
"2473.7050000112504","<p>How energetic/arousing was the feeling expressed in this musical clip</p>","","arousal rating","html-slider-response","223","849015","0.0-2.0-5.36","esfsup646pd4dc3","","","","46"
"null","<div style=""font-size:60px;"">+</div>","null","fixation","html-keyboard-response","224","850018","0.0-2.0-0.37","esfsup646pd4dc3","","","",""
"null","<div style=""font-size:60px;color:green"">+</div>","null","fixation","html-keyboard-response","225","850523","0.0-2.0-1.37","esfsup646pd4dc3","","","",""
"null","audio/23_Inside.mp3","null","song","audio-keyboard-response","226","851525","0.0-2.0-2.37","esfsup646pd4dc3","sad","","",""
"4824.8400000156835","","","emotion_rating","survey-multi-choice","227","856350","0.0-2.0-3.37","esfsup646pd4dc3","","{""Q0"":""None of these""}","[0]",""
"1774.5400000130758","<p>How negative/positive was this feeling expressed in this musical clip</p>","","valence rating","html-slider-response","228","858128","0.0-2.0-4.37","esfsup646pd4dc3","","","","45"
"2023.9949999377131","<p>How energetic/arousing was the feeling expressed in this musical clip</p>","","arousal rating","html-slider-response","229","860153","0.0-2.0-5.37","esfsup646pd4dc3","","","","54"
"null","<div style=""font-size:60px;"">+</div>","null","fixation","html-keyboard-response","230","861157","0.0-2.0-0.38","esfsup646pd4dc3","","","",""
"null","<div style=""font-size:60px;color:green"">+</div>","null","fixation","html-keyboard-response","231","861659","0.0-2.0-1.38","esfsup646pd4dc3","","","",""
"null","audio/5_Love's_Requiem.mp3","null","song","audio-keyboard-response","232","862664","0.0-2.0-2.38","esfsup646pd4dc3","sad","","",""
"3350.0599999679253","","","emotion_rating","survey-multi-choice","233","866014","0.0-2.0-3.38","esfsup646pd4dc3","","{""Q0"":""Sad""}","[0]",""
"1852.4399999296293","<p>How negative/positive was this feeling expressed in this musical clip</p>","","valence rating","html-slider-response","234","867870","0.0-2.0-4.38","esfsup646pd4dc3","","","","46"
"6467.730000033043","<p>How energetic/arousing was the feeling expressed in this musical clip</p>","","arousal rating","html-slider-response","235","874339","0.0-2.0-5.38","esfsup646pd4dc3","","","","54"
"null","<div style=""font-size:60px;"">+</div>","null","fixation","html-keyboard-response","236","875340","0.0-2.0-0.39","esfsup646pd4dc3","","","",""
"null","<div style=""font-size:60px;color:green"">+</div>","null","fixation","html-keyboard-response","237","875841","0.0-2.0-1.39","esfsup646pd4dc3","","","",""
"null","audio/13_If_The_Creeks_Don't_Rise.mp3","null","song","audio-keyboard-response","238","876846","0.0-2.0-2.39","esfsup646pd4dc3","happy","","",""
"6324.380000005476","","","emotion_rating","survey-multi-choice","239","883171","0.0-2.0-3.39","esfsup646pd4dc3","","{""Q0"":""Sad""}","[0]",""
"1740.6950000440702","<p>How negative/positive was this feeling expressed in this musical clip</p>","","valence rating","html-slider-response","240","884915","0.0-2.0-4.39","esfsup646pd4dc3","","","","48"
"1911.199999973178","<p>How energetic/arousing was the feeling expressed in this musical clip</p>","","arousal rating","html-slider-response","241","886827","0.0-2.0-5.39","esfsup646pd4dc3","","","","57"
"null","<div style=""font-size:60px;"">+</div>","null","fixation","html-keyboard-response","242","887827","0.0-2.0-0.40","esfsup646pd4dc3","","","",""
"null","<div style=""font-size:60px;color:green"">+</div>","null","fixation","html-keyboard-response","243","888332","0.0-2.0-1.40","esfsup646pd4dc3","","","",""
"null","audio/16_Restless.mp3","null","song","audio-keyboard-response","244","889337","0.0-2.0-2.40","esfsup646pd4dc3","happy","","",""
"8807.135000010021","","","emotion_rating","survey-multi-choice","245","898145","0.0-2.0-3.40","esfsup646pd4dc3","","{""Q0"":""None of these""}","[0]",""
"1964.7099999710917","<p>How negative/positive was this feeling expressed in this musical clip</p>","","valence rating","html-slider-response","246","900113","0.0-2.0-4.40","esfsup646pd4dc3","","","","60"
"2125.4949999274686","<p>How energetic/arousing was the feeling expressed in this musical clip</p>","","arousal rating","html-slider-response","247","902239","0.0-2.0-5.40","esfsup646pd4dc3","","","","65"
"null","<div style=""font-size:60px;"">+</div>","null","fixation","html-keyboard-response","248","903244","0.0-2.0-0.41","esfsup646pd4dc3","","","",""
"null","<div style=""font-size:60px;color:green"">+</div>","null","fixation","html-keyboard-response","249","903748","0.0-2.0-1.41","esfsup646pd4dc3","","","",""
"null","audio/3_Old_Blacktop_[Album_Version].mp3","null","song","audio-keyboard-response","250","904753","0.0-2.0-2.41","esfsup646pd4dc3","sad","","",""
"2683.5250000003725","","","emotion_rating","survey-multi-choice","251","907437","0.0-2.0-3.41","esfsup646pd4dc3","","{""Q0"":""Sad""}","[0]",""
"2854.2500000912696","<p>How negative/positive was this feeling expressed in this musical clip</p>","","valence rating","html-slider-response","252","910295","0.0-2.0-4.41","esfsup646pd4dc3","","","","40"
"2024.1099999984726","<p>How energetic/arousing was the feeling expressed in this musical clip</p>","","arousal rating","html-slider-response","253","912320","0.0-2.0-5.41","esfsup646pd4dc3","","","","55"
"null","<div style=""font-size:60px;"">+</div>","null","fixation","html-keyboard-response","254","913322","0.0-2.0-0.42","esfsup646pd4dc3","","","",""
"null","<div style=""font-size:60px;color:green"">+</div>","null","fixation","html-keyboard-response","255","913827","0.0-2.0-1.42","esfsup646pd4dc3","","","",""
"null","audio/15_Bunkertor_7_(German_Texture).mp3","null","song","audio-keyboard-response","256","914830","0.0-2.0-2.42","esfsup646pd4dc3","angry","","",""
"35774.12000007462","","","emotion_rating","survey-multi-choice","257","950605","0.0-2.0-3.42","esfsup646pd4dc3","","{""Q0"":""Angry""}","[0]",""
"3168.584999977611","<p>How negative/positive was this feeling expressed in this musical clip</p>","","valence rating","html-slider-response","258","953777","0.0-2.0-4.42","esfsup646pd4dc3","","","","56"
"2215.345000033267","<p>How energetic/arousing was the feeling expressed in this musical clip</p>","","arousal rating","html-slider-response","259","955993","0.0-2.0-5.42","esfsup646pd4dc3","","","","74"
"null","<div style=""font-size:60px;"">+</div>","null","fixation","html-keyboard-response","260","956994","0.0-2.0-0.43","esfsup646pd4dc3","","","",""
"null","<div style=""font-size:60px;color:green"">+</div>","null","fixation","html-keyboard-response","261","957496","0.0-2.0-1.43","esfsup646pd4dc3","","","",""
"null","audio/5_Get_Lucky.mp3","null","song","audio-keyboard-response","262","958501","0.0-2.0-2.43","esfsup646pd4dc3","happy","","",""
"7279.5800000894815","","","emotion_rating","survey-multi-choice","263","965781","0.0-2.0-3.43","esfsup646pd4dc3","","{""Q0"":""None of these""}","[0]",""
"1830.695000011474","<p>How negative/positive was this feeling expressed in this musical clip</p>","","valence rating","html-slider-response","264","967615","0.0-2.0-4.43","esfsup646pd4dc3","","","","59"
"1539.8649999406189","<p>How energetic/arousing was the feeling expressed in this musical clip</p>","","arousal rating","html-slider-response","265","969155","0.0-2.0-5.43","esfsup646pd4dc3","","","","58"
"null","<div style=""font-size:60px;"">+</div>","null","fixation","html-keyboard-response","266","970160","0.0-2.0-0.44","esfsup646pd4dc3","","","",""
"null","<div style=""font-size:60px;color:green"">+</div>","null","fixation","html-keyboard-response","267","970665","0.0-2.0-1.44","esfsup646pd4dc3","","","",""
"null","audio/13_Boser_Wolf.mp3","null","song","audio-keyboard-response","268","971669","0.0-2.0-2.44","esfsup646pd4dc3","sad","","",""
"5958.074999973178","","","emotion_rating","survey-multi-choice","269","977628","0.0-2.0-3.44","esfsup646pd4dc3","","{""Q0"":""Relaxed""}","[0]",""
"2257.8999999677762","<p>How negative/positive was this feeling expressed in this musical clip</p>","","valence rating","html-slider-response","270","979889","0.0-2.0-4.44","esfsup646pd4dc3","","","","47"
"1697.359999991022","<p>How energetic/arousing was the feeling expressed in this musical clip</p>","","arousal rating","html-slider-response","271","981587","0.0-2.0-5.44","esfsup646pd4dc3","","","","54"
