"rt","stimulus","key_press","test_part","trial_type","trial_index","time_elapsed","internal_node_id","subject","target","responses","question_order","response"
"2250.784999981988","Welcome to the experiment. Press any key to begin.","32","welcome","html-keyboard-response","0","2254","0.0-0.0","wto40f559ergwfw","","","",""
"29454.744999995455","<p>In this study you will hear a short musical clip and then make some ratings about the emotion it expresses or conveys</p><p>First you will select which emotion you think the musical clip is expressing</p><p>You will then rate how pleasant the feeling expressed in the musical clip was and also how energetic it was</p><p>Press the space bar to begin</p>","32","instruction","html-keyboard-response","1","31711","0.0-1.0","wto40f559ergwfw","","","",""
"null","<div style=""font-size:60px;"">+</div>","null","fixation","html-keyboard-response","2","32712","0.0-2.0-0.0","wto40f559ergwfw","","","",""
"null","<div style=""font-size:60px;color:green"">+</div>","null","fixation","html-keyboard-response","3","33214","0.0-2.0-1.0","wto40f559ergwfw","","","",""
"null","audio/13_Motown_Junk.mp3","null","song","audio-keyboard-response","4","34218","0.0-2.0-2.0","wto40f559ergwfw","angry","","",""
"5265.215000021271","","","emotion_rating","survey-multi-choice","5","39486","0.0-2.0-3.0","wto40f559ergwfw","","{""Q0"":""Happy""}","[0]",""
"6086.280000046827","<p>How negative/positive was this feeling expressed in this musical clip</p>","","valence rating","html-slider-response","6","45577","0.0-2.0-4.0","wto40f559ergwfw","","","","70"
"2657.2349999914877","<p>How energetic/arousing was the feeling expressed in this musical clip</p>","","arousal rating","html-slider-response","7","48238","0.0-2.0-5.0","wto40f559ergwfw","","","","100"
"null","<div style=""font-size:60px;"">+</div>","null","fixation","html-keyboard-response","8","49240","0.0-2.0-0.1","wto40f559ergwfw","","","",""
"null","<div style=""font-size:60px;color:green"">+</div>","null","fixation","html-keyboard-response","9","49742","0.0-2.0-1.1","wto40f559ergwfw","","","",""
"null","audio/28_Valerie.mp3","null","song","audio-keyboard-response","10","50745","0.0-2.0-2.1","wto40f559ergwfw","happy","","",""
"3276.849999965634","","","emotion_rating","survey-multi-choice","11","54024","0.0-2.0-3.1","wto40f559ergwfw","","{""Q0"":""Happy""}","[0]",""
"3580.5449999752454","<p>How negative/positive was this feeling expressed in this musical clip</p>","","valence rating","html-slider-response","12","57606","0.0-2.0-4.1","wto40f559ergwfw","","","","76"
"8740.289999986999","<p>How energetic/arousing was the feeling expressed in this musical clip</p>","","arousal rating","html-slider-response","13","66348","0.0-2.0-5.1","wto40f559ergwfw","","","","57"
"null","<div style=""font-size:60px;"">+</div>","null","fixation","html-keyboard-response","14","67351","0.0-2.0-0.2","wto40f559ergwfw","","","",""
"null","<div style=""font-size:60px;color:green"">+</div>","null","fixation","html-keyboard-response","15","67854","0.0-2.0-1.2","wto40f559ergwfw","","","",""
"null","audio/4_Make_Light.mp3","null","song","audio-keyboard-response","16","68858","0.0-2.0-2.2","wto40f559ergwfw","happy","","",""
"5611.4700000034645","","","emotion_rating","survey-multi-choice","17","74473","0.0-2.0-3.2","wto40f559ergwfw","","{""Q0"":""Happy""}","[0]",""
"3279.3900000397116","<p>How negative/positive was this feeling expressed in this musical clip</p>","","valence rating","html-slider-response","18","77755","0.0-2.0-4.2","wto40f559ergwfw","","","","61"
"2950.989999982994","<p>How energetic/arousing was the feeling expressed in this musical clip</p>","","arousal rating","html-slider-response","19","80707","0.0-2.0-5.2","wto40f559ergwfw","","","","15"
"null","<div style=""font-size:60px;"">+</div>","null","fixation","html-keyboard-response","20","81708","0.0-2.0-0.3","wto40f559ergwfw","","","",""
"null","<div style=""font-size:60px;color:green"">+</div>","null","fixation","html-keyboard-response","21","82210","0.0-2.0-1.3","wto40f559ergwfw","","","",""
"null","audio/3_Old_Blacktop_[Album_Version].mp3","null","song","audio-keyboard-response","22","83214","0.0-2.0-2.3","wto40f559ergwfw","sad","","",""
"4395.7899999804795","","","emotion_rating","survey-multi-choice","23","87611","0.0-2.0-3.3","wto40f559ergwfw","","{""Q0"":""Sad""}","[0]",""
"1835.0150000187568","<p>How negative/positive was this feeling expressed in this musical clip</p>","","valence rating","html-slider-response","24","89448","0.0-2.0-4.3","wto40f559ergwfw","","","","10"
"3322.935000003781","<p>How energetic/arousing was the feeling expressed in this musical clip</p>","","arousal rating","html-slider-response","25","92775","0.0-2.0-5.3","wto40f559ergwfw","","","","43"
"null","<div style=""font-size:60px;"">+</div>","null","fixation","html-keyboard-response","26","93779","0.0-2.0-0.4","wto40f559ergwfw","","","",""
"null","<div style=""font-size:60px;color:green"">+</div>","null","fixation","html-keyboard-response","27","94281","0.0-2.0-1.4","wto40f559ergwfw","","","",""
"null","audio/5_Valerie.mp3","null","song","audio-keyboard-response","28","95286","0.0-2.0-2.4","wto40f559ergwfw","happy","","",""
"4263.755000021774","","","emotion_rating","survey-multi-choice","29","99554","0.0-2.0-3.4","wto40f559ergwfw","","{""Q0"":""Happy""}","[0]",""
"2375.845000031404","<p>How negative/positive was this feeling expressed in this musical clip</p>","","valence rating","html-slider-response","30","101933","0.0-2.0-4.4","wto40f559ergwfw","","","","74"
"2914.4599999999627","<p>How energetic/arousing was the feeling expressed in this musical clip</p>","","arousal rating","html-slider-response","31","104849","0.0-2.0-5.4","wto40f559ergwfw","","","","75"
"null","<div style=""font-size:60px;"">+</div>","null","fixation","html-keyboard-response","32","105850","0.0-2.0-0.5","wto40f559ergwfw","","","",""
"null","<div style=""font-size:60px;color:green"">+</div>","null","fixation","html-keyboard-response","33","106352","0.0-2.0-1.5","wto40f559ergwfw","","","",""
"null","audio/4_Mbube.mp3","null","song","audio-keyboard-response","34","107355","0.0-2.0-2.5","wto40f559ergwfw","relaxed","","",""
"5818.72999999905","","","emotion_rating","survey-multi-choice","35","113175","0.0-2.0-3.5","wto40f559ergwfw","","{""Q0"":""None of these""}","[0]",""
"2744.8549999971874","<p>How negative/positive was this feeling expressed in this musical clip</p>","","valence rating","html-slider-response","36","115924","0.0-2.0-4.5","wto40f559ergwfw","","","","68"
"2597.765000013169","<p>How energetic/arousing was the feeling expressed in this musical clip</p>","","arousal rating","html-slider-response","37","118526","0.0-2.0-5.5","wto40f559ergwfw","","","","71"
"null","<div style=""font-size:60px;"">+</div>","null","fixation","html-keyboard-response","38","119528","0.0-2.0-0.6","wto40f559ergwfw","","","",""
"null","<div style=""font-size:60px;color:green"">+</div>","null","fixation","html-keyboard-response","39","120030","0.0-2.0-1.6","wto40f559ergwfw","","","",""
"null","audio/14_Get_Lucky.mp3","null","song","audio-keyboard-response","40","121033","0.0-2.0-2.6","wto40f559ergwfw","happy","","",""
"2108.2099999766797","","","emotion_rating","survey-multi-choice","41","123143","0.0-2.0-3.6","wto40f559ergwfw","","{""Q0"":""Happy""}","[0]",""
"5214.579999970738","<p>How negative/positive was this feeling expressed in this musical clip</p>","","valence rating","html-slider-response","42","128360","0.0-2.0-4.6","wto40f559ergwfw","","","","39"
"3193.489999976009","<p>How energetic/arousing was the feeling expressed in this musical clip</p>","","arousal rating","html-slider-response","43","131555","0.0-2.0-5.6","wto40f559ergwfw","","","","65"
"null","<div style=""font-size:60px;"">+</div>","null","fixation","html-keyboard-response","44","132558","0.0-2.0-0.7","wto40f559ergwfw","","","",""
"null","<div style=""font-size:60px;color:green"">+</div>","null","fixation","html-keyboard-response","45","133061","0.0-2.0-1.7","wto40f559ergwfw","","","",""
"null","audio/19_I_hate_Everything_About_You.mp3","null","song","audio-keyboard-response","46","134065","0.0-2.0-2.7","wto40f559ergwfw","angry","","",""
"1963.3650000323541","","","emotion_rating","survey-multi-choice","47","136030","0.0-2.0-3.7","wto40f559ergwfw","","{""Q0"":""Angry""}","[0]",""
"3641.0349999787286","<p>How negative/positive was this feeling expressed in this musical clip</p>","","valence rating","html-slider-response","48","139675","0.0-2.0-4.7","wto40f559ergwfw","","","","5"
"2173.509999993257","<p>How energetic/arousing was the feeling expressed in this musical clip</p>","","arousal rating","html-slider-response","49","141849","0.0-2.0-5.7","wto40f559ergwfw","","","","98"
"null","<div style=""font-size:60px;"">+</div>","null","fixation","html-keyboard-response","50","142851","0.0-2.0-0.8","wto40f559ergwfw","","","",""
"null","<div style=""font-size:60px;color:green"">+</div>","null","fixation","html-keyboard-response","51","143354","0.0-2.0-1.8","wto40f559ergwfw","","","",""
"null","audio/25_Old_Blacktop_[Album_Version].mp3","null","song","audio-keyboard-response","52","144359","0.0-2.0-2.8","wto40f559ergwfw","sad","","",""
"2761.3649999839254","","","emotion_rating","survey-multi-choice","53","147122","0.0-2.0-3.8","wto40f559ergwfw","","{""Q0"":""Sad""}","[0]",""
"5460.989999992307","<p>How negative/positive was this feeling expressed in this musical clip</p>","","valence rating","html-slider-response","54","152591","0.0-2.0-4.8","wto40f559ergwfw","","","","34"
"5024.159999971744","<p>How energetic/arousing was the feeling expressed in this musical clip</p>","","arousal rating","html-slider-response","55","157617","0.0-2.0-5.8","wto40f559ergwfw","","","","50"
"null","<div style=""font-size:60px;"">+</div>","null","fixation","html-keyboard-response","56","158618","0.0-2.0-0.9","wto40f559ergwfw","","","",""
"null","<div style=""font-size:60px;color:green"">+</div>","null","fixation","html-keyboard-response","57","159121","0.0-2.0-1.9","wto40f559ergwfw","","","",""
"null","audio/2_Blood_On_The_Ground.mp3","null","song","audio-keyboard-response","58","160126","0.0-2.0-2.9","wto40f559ergwfw","angry","","",""
"7327.380000031553","","","emotion_rating","survey-multi-choice","59","167459","0.0-2.0-3.9","wto40f559ergwfw","","{""Q0"":""Angry""}","[0]",""
"4263.954999973066","<p>How negative/positive was this feeling expressed in this musical clip</p>","","valence rating","html-slider-response","60","171725","0.0-2.0-4.9","wto40f559ergwfw","","","","50"
"1937.6749999937601","<p>How energetic/arousing was the feeling expressed in this musical clip</p>","","arousal rating","html-slider-response","61","173664","0.0-2.0-5.9","wto40f559ergwfw","","","","93"
"null","<div style=""font-size:60px;"">+</div>","null","fixation","html-keyboard-response","62","174665","0.0-2.0-0.10","wto40f559ergwfw","","","",""
"null","<div style=""font-size:60px;color:green"">+</div>","null","fixation","html-keyboard-response","63","175167","0.0-2.0-1.10","wto40f559ergwfw","","","",""
"null","audio/1_Be_Happy.mp3","null","song","audio-keyboard-response","64","176171","0.0-2.0-2.10","wto40f559ergwfw","happy","","",""
"4442.9200000013225","","","emotion_rating","survey-multi-choice","65","180615","0.0-2.0-3.10","wto40f559ergwfw","","{""Q0"":""Sad""}","[0]",""
"2185.779999999795","<p>How negative/positive was this feeling expressed in this musical clip</p>","","valence rating","html-slider-response","66","182802","0.0-2.0-4.10","wto40f559ergwfw","","","","24"
"3339.1350000165403","<p>How energetic/arousing was the feeling expressed in this musical clip</p>","","arousal rating","html-slider-response","67","186143","0.0-2.0-5.10","wto40f559ergwfw","","","","84"
"null","<div style=""font-size:60px;"">+</div>","null","fixation","html-keyboard-response","68","187146","0.0-2.0-0.11","wto40f559ergwfw","","","",""
"null","<div style=""font-size:60px;color:green"">+</div>","null","fixation","html-keyboard-response","69","187648","0.0-2.0-1.11","wto40f559ergwfw","","","",""
"null","audio/7_Digital.mp3","null","song","audio-keyboard-response","70","188653","0.0-2.0-2.11","wto40f559ergwfw","relaxed","","",""
"2142.8300000261515","","","emotion_rating","survey-multi-choice","71","190799","0.0-2.0-3.11","wto40f559ergwfw","","{""Q0"":""Sad""}","[0]",""
"3579.9499999848194","<p>How negative/positive was this feeling expressed in this musical clip</p>","","valence rating","html-slider-response","72","194380","0.0-2.0-4.11","wto40f559ergwfw","","","","25"
"3881.7500000004657","<p>How energetic/arousing was the feeling expressed in this musical clip</p>","","arousal rating","html-slider-response","73","198266","0.0-2.0-5.11","wto40f559ergwfw","","","","57"
"null","<div style=""font-size:60px;"">+</div>","null","fixation","html-keyboard-response","74","199267","0.0-2.0-0.12","wto40f559ergwfw","","","",""
"null","<div style=""font-size:60px;color:green"">+</div>","null","fixation","html-keyboard-response","75","199769","0.0-2.0-1.12","wto40f559ergwfw","","","",""
"null","audio/15_Bunkertor_7_(German_Texture).mp3","null","song","audio-keyboard-response","76","200771","0.0-2.0-2.12","wto40f559ergwfw","angry","","",""
"1401.2750000110827","","","emotion_rating","survey-multi-choice","77","202174","0.0-2.0-3.12","wto40f559ergwfw","","{""Q0"":""Angry""}","[0]",""
"3020.925000018906","<p>How negative/positive was this feeling expressed in this musical clip</p>","","valence rating","html-slider-response","78","205199","0.0-2.0-4.12","wto40f559ergwfw","","","","0"
"2282.825000002049","<p>How energetic/arousing was the feeling expressed in this musical clip</p>","","arousal rating","html-slider-response","79","207485","0.0-2.0-5.12","wto40f559ergwfw","","","","100"
"null","<div style=""font-size:60px;"">+</div>","null","fixation","html-keyboard-response","80","208498","0.0-2.0-0.13","wto40f559ergwfw","","","",""
"null","<div style=""font-size:60px;color:green"">+</div>","null","fixation","html-keyboard-response","81","209000","0.0-2.0-1.13","wto40f559ergwfw","","","",""
"null","audio/21_Skank_Down.mp3","null","song","audio-keyboard-response","82","210013","0.0-2.0-2.13","wto40f559ergwfw","happy","","",""
"1837.6600000192411","","","emotion_rating","survey-multi-choice","83","211854","0.0-2.0-3.13","wto40f559ergwfw","","{""Q0"":""Happy""}","[0]",""
"1655.1949999993667","<p>How negative/positive was this feeling expressed in this musical clip</p>","","valence rating","html-slider-response","84","213512","0.0-2.0-4.13","wto40f559ergwfw","","","","100"
"1784.3949999660254","<p>How energetic/arousing was the feeling expressed in this musical clip</p>","","arousal rating","html-slider-response","85","215297","0.0-2.0-5.13","wto40f559ergwfw","","","","100"
"null","<div style=""font-size:60px;"">+</div>","null","fixation","html-keyboard-response","86","216298","0.0-2.0-0.14","wto40f559ergwfw","","","",""
"null","<div style=""font-size:60px;color:green"">+</div>","null","fixation","html-keyboard-response","87","216801","0.0-2.0-1.14","wto40f559ergwfw","","","",""
"null","audio/16_Restless.mp3","null","song","audio-keyboard-response","88","217804","0.0-2.0-2.14","wto40f559ergwfw","happy","","",""
"1732.4350000126287","","","emotion_rating","survey-multi-choice","89","219538","0.0-2.0-3.14","wto40f559ergwfw","","{""Q0"":""Happy""}","[0]",""
"2811.7449999554083","<p>How negative/positive was this feeling expressed in this musical clip</p>","","valence rating","html-slider-response","90","222351","0.0-2.0-4.14","wto40f559ergwfw","","","","80"
"1986.8949999799952","<p>How energetic/arousing was the feeling expressed in this musical clip</p>","","arousal rating","html-slider-response","91","224339","0.0-2.0-5.14","wto40f559ergwfw","","","","80"
"null","<div style=""font-size:60px;"">+</div>","null","fixation","html-keyboard-response","92","225340","0.0-2.0-0.15","wto40f559ergwfw","","","",""
"null","<div style=""font-size:60px;color:green"">+</div>","null","fixation","html-keyboard-response","93","225842","0.0-2.0-1.15","wto40f559ergwfw","","","",""
"null","audio/26_It_Only_Hurts_When_I'm_Breathing.mp3","null","song","audio-keyboard-response","94","226845","0.0-2.0-2.15","wto40f559ergwfw","sad","","",""
"2063.610000011977","","","emotion_rating","survey-multi-choice","95","228910","0.0-2.0-3.15","wto40f559ergwfw","","{""Q0"":""Sad""}","[0]",""
"2552.7400000137277","<p>How negative/positive was this feeling expressed in this musical clip</p>","","valence rating","html-slider-response","96","231465","0.0-2.0-4.15","wto40f559ergwfw","","","","14"
"2157.1600000024773","<p>How energetic/arousing was the feeling expressed in this musical clip</p>","","arousal rating","html-slider-response","97","233624","0.0-2.0-5.15","wto40f559ergwfw","","","","50"
"null","<div style=""font-size:60px;"">+</div>","null","fixation","html-keyboard-response","98","234625","0.0-2.0-0.16","wto40f559ergwfw","","","",""
"null","<div style=""font-size:60px;color:green"">+</div>","null","fixation","html-keyboard-response","99","235126","0.0-2.0-1.16","wto40f559ergwfw","","","",""
"null","audio/5_Get_Lucky.mp3","null","song","audio-keyboard-response","100","236128","0.0-2.0-2.16","wto40f559ergwfw","happy","","",""
"2076.7849999829195","","","emotion_rating","survey-multi-choice","101","238206","0.0-2.0-3.16","wto40f559ergwfw","","{""Q0"":""Relaxed""}","[0]",""
"1149.9949999852106","<p>How negative/positive was this feeling expressed in this musical clip</p>","","valence rating","html-slider-response","102","239358","0.0-2.0-4.16","wto40f559ergwfw","","","","50"
"1474.7699999716133","<p>How energetic/arousing was the feeling expressed in this musical clip</p>","","arousal rating","html-slider-response","103","240833","0.0-2.0-5.16","wto40f559ergwfw","","","","50"
"null","<div style=""font-size:60px;"">+</div>","null","fixation","html-keyboard-response","104","241835","0.0-2.0-0.17","wto40f559ergwfw","","","",""
"null","<div style=""font-size:60px;color:green"">+</div>","null","fixation","html-keyboard-response","105","242337","0.0-2.0-1.17","wto40f559ergwfw","","","",""
"null","audio/12_Skank_Down.mp3","null","song","audio-keyboard-response","106","243339","0.0-2.0-2.17","wto40f559ergwfw","happy","","",""
"1479.2700000107288","","","emotion_rating","survey-multi-choice","107","244820","0.0-2.0-3.17","wto40f559ergwfw","","{""Q0"":""Happy""}","[0]",""
"2012.7750000101514","<p>How negative/positive was this feeling expressed in this musical clip</p>","","valence rating","html-slider-response","108","246844","0.0-2.0-4.17","wto40f559ergwfw","","","","85"
"2316.075000038836","<p>How energetic/arousing was the feeling expressed in this musical clip</p>","","arousal rating","html-slider-response","109","249161","0.0-2.0-5.17","wto40f559ergwfw","","","","88"
"null","<div style=""font-size:60px;"">+</div>","null","fixation","html-keyboard-response","110","250163","0.0-2.0-0.18","wto40f559ergwfw","","","",""
"null","<div style=""font-size:60px;color:green"">+</div>","null","fixation","html-keyboard-response","111","250665","0.0-2.0-1.18","wto40f559ergwfw","","","",""
"null","audio/5_Love's_Requiem.mp3","null","song","audio-keyboard-response","112","251668","0.0-2.0-2.18","wto40f559ergwfw","sad","","",""
"1640.0249999715015","","","emotion_rating","survey-multi-choice","113","253313","0.0-2.0-3.18","wto40f559ergwfw","","{""Q0"":""Sad""}","[0]",""
"2394.259999971837","<p>How negative/positive was this feeling expressed in this musical clip</p>","","valence rating","html-slider-response","114","255719","0.0-2.0-4.18","wto40f559ergwfw","","","","0"
"3463.8100000447594","<p>How energetic/arousing was the feeling expressed in this musical clip</p>","","arousal rating","html-slider-response","115","259187","0.0-2.0-5.18","wto40f559ergwfw","","","","31"
"null","<div style=""font-size:60px;"">+</div>","null","fixation","html-keyboard-response","116","260189","0.0-2.0-0.19","wto40f559ergwfw","","","",""
"null","<div style=""font-size:60px;color:green"">+</div>","null","fixation","html-keyboard-response","117","260692","0.0-2.0-1.19","wto40f559ergwfw","","","",""
"null","audio/4_Destiny.mp3","null","song","audio-keyboard-response","118","261700","0.0-2.0-2.19","wto40f559ergwfw","relaxed","","",""
"1884.0500000515021","","","emotion_rating","survey-multi-choice","119","263586","0.0-2.0-3.19","wto40f559ergwfw","","{""Q0"":""Relaxed""}","[0]",""
"3390.5650000087917","<p>How negative/positive was this feeling expressed in this musical clip</p>","","valence rating","html-slider-response","120","266980","0.0-2.0-4.19","wto40f559ergwfw","","","","43"
"8882.709999976214","<p>How energetic/arousing was the feeling expressed in this musical clip</p>","","arousal rating","html-slider-response","121","275864","0.0-2.0-5.19","wto40f559ergwfw","","","","26"
"null","<div style=""font-size:60px;"">+</div>","null","fixation","html-keyboard-response","122","276868","0.0-2.0-0.20","wto40f559ergwfw","","","",""
"null","<div style=""font-size:60px;color:green"">+</div>","null","fixation","html-keyboard-response","123","277371","0.0-2.0-1.20","wto40f559ergwfw","","","",""
"null","audio/2_Incomplete.mp3","null","song","audio-keyboard-response","124","278373","0.0-2.0-2.20","wto40f559ergwfw","angry","","",""
"1464.1900000278838","","","emotion_rating","survey-multi-choice","125","279838","0.0-2.0-3.20","wto40f559ergwfw","","{""Q0"":""Angry""}","[0]",""
"2702.694999985397","<p>How negative/positive was this feeling expressed in this musical clip</p>","","valence rating","html-slider-response","126","282543","0.0-2.0-4.20","wto40f559ergwfw","","","","1"
"3171.8199999886565","<p>How energetic/arousing was the feeling expressed in this musical clip</p>","","arousal rating","html-slider-response","127","285717","0.0-2.0-5.20","wto40f559ergwfw","","","","99"
"null","<div style=""font-size:60px;"">+</div>","null","fixation","html-keyboard-response","128","286719","0.0-2.0-0.21","wto40f559ergwfw","","","",""
"null","<div style=""font-size:60px;color:green"">+</div>","null","fixation","html-keyboard-response","129","287220","0.0-2.0-1.21","wto40f559ergwfw","","","",""
"null","audio/1_Skinny_Love.mp3","null","song","audio-keyboard-response","130","288228","0.0-2.0-2.21","wto40f559ergwfw","sad","","",""
"1645.5650000134483","","","emotion_rating","survey-multi-choice","131","289875","0.0-2.0-3.21","wto40f559ergwfw","","{""Q0"":""Sad""}","[0]",""
"1913.1250000209548","<p>How negative/positive was this feeling expressed in this musical clip</p>","","valence rating","html-slider-response","132","291793","0.0-2.0-4.21","wto40f559ergwfw","","","","0"
"4443.475000036415","<p>How energetic/arousing was the feeling expressed in this musical clip</p>","","arousal rating","html-slider-response","133","296241","0.0-2.0-5.21","wto40f559ergwfw","","","","19"
"null","<div style=""font-size:60px;"">+</div>","null","fixation","html-keyboard-response","134","297241","0.0-2.0-0.22","wto40f559ergwfw","","","",""
"null","<div style=""font-size:60px;color:green"">+</div>","null","fixation","html-keyboard-response","135","297743","0.0-2.0-1.22","wto40f559ergwfw","","","",""
"null","audio/23_Inside.mp3","null","song","audio-keyboard-response","136","298745","0.0-2.0-2.22","wto40f559ergwfw","sad","","",""
"1652.9000000446104","","","emotion_rating","survey-multi-choice","137","300399","0.0-2.0-3.22","wto40f559ergwfw","","{""Q0"":""Sad""}","[0]",""
"3016.3200000533834","<p>How negative/positive was this feeling expressed in this musical clip</p>","","valence rating","html-slider-response","138","303418","0.0-2.0-4.22","wto40f559ergwfw","","","","25"
"2155.4050000268035","<p>How energetic/arousing was the feeling expressed in this musical clip</p>","","arousal rating","html-slider-response","139","305578","0.0-2.0-5.22","wto40f559ergwfw","","","","67"
"null","<div style=""font-size:60px;"">+</div>","null","fixation","html-keyboard-response","140","306579","0.0-2.0-0.23","wto40f559ergwfw","","","",""
"null","<div style=""font-size:60px;color:green"">+</div>","null","fixation","html-keyboard-response","141","307081","0.0-2.0-1.23","wto40f559ergwfw","","","",""
"null","audio/1_The_Sweetest.mp3","null","song","audio-keyboard-response","142","308084","0.0-2.0-2.23","wto40f559ergwfw","relaxed","","",""
"1476.2549999868497","","","emotion_rating","survey-multi-choice","143","309562","0.0-2.0-3.23","wto40f559ergwfw","","{""Q0"":""Relaxed""}","[0]",""
"1718.764999997802","<p>How negative/positive was this feeling expressed in this musical clip</p>","","valence rating","html-slider-response","144","311284","0.0-2.0-4.23","wto40f559ergwfw","","","","50"
"3253.049999999348","<p>How energetic/arousing was the feeling expressed in this musical clip</p>","","arousal rating","html-slider-response","145","314544","0.0-2.0-5.23","wto40f559ergwfw","","","","0"
"null","<div style=""font-size:60px;"">+</div>","null","fixation","html-keyboard-response","146","315546","0.0-2.0-0.24","wto40f559ergwfw","","","",""
"null","<div style=""font-size:60px;color:green"">+</div>","null","fixation","html-keyboard-response","147","316048","0.0-2.0-1.24","wto40f559ergwfw","","","",""
"null","audio/8_Fire_And_Rain__(LP_Version).mp3","null","song","audio-keyboard-response","148","317051","0.0-2.0-2.24","wto40f559ergwfw","sad","","",""
"2127.009999996517","","","emotion_rating","survey-multi-choice","149","319180","0.0-2.0-3.24","wto40f559ergwfw","","{""Q0"":""Sad""}","[0]",""
"1753.5149999894202","<p>How negative/positive was this feeling expressed in this musical clip</p>","","valence rating","html-slider-response","150","320937","0.0-2.0-4.24","wto40f559ergwfw","","","","31"
"1581.8699999945238","<p>How energetic/arousing was the feeling expressed in this musical clip</p>","","arousal rating","html-slider-response","151","322520","0.0-2.0-5.24","wto40f559ergwfw","","","","33"
"null","<div style=""font-size:60px;"">+</div>","null","fixation","html-keyboard-response","152","323522","0.0-2.0-0.25","wto40f559ergwfw","","","",""
"null","<div style=""font-size:60px;color:green"">+</div>","null","fixation","html-keyboard-response","153","324024","0.0-2.0-1.25","wto40f559ergwfw","","","",""
"null","audio/13_If_The_Creeks_Don't_Rise.mp3","null","song","audio-keyboard-response","154","325027","0.0-2.0-2.25","wto40f559ergwfw","happy","","",""
"11449.224999989383","","","emotion_rating","survey-multi-choice","155","336477","0.0-2.0-3.25","wto40f559ergwfw","","{""Q0"":""None of these""}","[0]",""
"781.3249999890104","<p>How negative/positive was this feeling expressed in this musical clip</p>","","valence rating","html-slider-response","156","337259","0.0-2.0-4.25","wto40f559ergwfw","","","","50"
"2322.26000004448","<p>How energetic/arousing was the feeling expressed in this musical clip</p>","","arousal rating","html-slider-response","157","339583","0.0-2.0-5.25","wto40f559ergwfw","","","","61"
"null","<div style=""font-size:60px;"">+</div>","null","fixation","html-keyboard-response","158","340585","0.0-2.0-0.26","wto40f559ergwfw","","","",""
"null","<div style=""font-size:60px;color:green"">+</div>","null","fixation","html-keyboard-response","159","341086","0.0-2.0-1.26","wto40f559ergwfw","","","",""
"null","audio/9_If_The_Creeks_Don't_Rise.mp3","null","song","audio-keyboard-response","160","342089","0.0-2.0-2.26","wto40f559ergwfw","happy","","",""
"1332.4499999871477","","","emotion_rating","survey-multi-choice","161","343423","0.0-2.0-3.26","wto40f559ergwfw","","{""Q0"":""Happy""}","[0]",""
"1903.0500000226311","<p>How negative/positive was this feeling expressed in this musical clip</p>","","valence rating","html-slider-response","162","345337","0.0-2.0-4.26","wto40f559ergwfw","","","","84"
"1157.6399999903515","<p>How energetic/arousing was the feeling expressed in this musical clip</p>","","arousal rating","html-slider-response","163","346500","0.0-2.0-5.26","wto40f559ergwfw","","","","72"
"null","<div style=""font-size:60px;"">+</div>","null","fixation","html-keyboard-response","164","347502","0.0-2.0-0.27","wto40f559ergwfw","","","",""
"null","<div style=""font-size:60px;color:green"">+</div>","null","fixation","html-keyboard-response","165","348005","0.0-2.0-1.27","wto40f559ergwfw","","","",""
"null","audio/26_Make_Light.mp3","null","song","audio-keyboard-response","166","349013","0.0-2.0-2.27","wto40f559ergwfw","happy","","",""
"4035.6850000098348","","","emotion_rating","survey-multi-choice","167","353050","0.0-2.0-3.27","wto40f559ergwfw","","{""Q0"":""Happy""}","[0]",""
"1711.6549999918789","<p>How negative/positive was this feeling expressed in this musical clip</p>","","valence rating","html-slider-response","168","354763","0.0-2.0-4.27","wto40f559ergwfw","","","","68"
"1380.3850000258535","<p>How energetic/arousing was the feeling expressed in this musical clip</p>","","arousal rating","html-slider-response","169","356145","0.0-2.0-5.27","wto40f559ergwfw","","","","66"
"null","<div style=""font-size:60px;"">+</div>","null","fixation","html-keyboard-response","170","357147","0.0-2.0-0.28","wto40f559ergwfw","","","",""
"null","<div style=""font-size:60px;color:green"">+</div>","null","fixation","html-keyboard-response","171","357650","0.0-2.0-1.28","wto40f559ergwfw","","","",""
"null","audio/24_Restless.mp3","null","song","audio-keyboard-response","172","358653","0.0-2.0-2.28","wto40f559ergwfw","happy","","",""
"1931.4899999881163","","","emotion_rating","survey-multi-choice","173","360586","0.0-2.0-3.28","wto40f559ergwfw","","{""Q0"":""Happy""}","[0]",""
"1987.0900000096299","<p>How negative/positive was this feeling expressed in this musical clip</p>","","valence rating","html-slider-response","174","362576","0.0-2.0-4.28","wto40f559ergwfw","","","","62"
"1763.425000011921","<p>How energetic/arousing was the feeling expressed in this musical clip</p>","","arousal rating","html-slider-response","175","364340","0.0-2.0-5.28","wto40f559ergwfw","","","","79"
"null","<div style=""font-size:60px;"">+</div>","null","fixation","html-keyboard-response","176","365342","0.0-2.0-0.29","wto40f559ergwfw","","","",""
"null","<div style=""font-size:60px;color:green"">+</div>","null","fixation","html-keyboard-response","177","365843","0.0-2.0-1.29","wto40f559ergwfw","","","",""
"null","audio/12_Fire_And_Rain_(LP_Version).mp3","null","song","audio-keyboard-response","178","366847","0.0-2.0-2.29","wto40f559ergwfw","sad","","",""
"1344.0800000098534","","","emotion_rating","survey-multi-choice","179","368193","0.0-2.0-3.29","wto40f559ergwfw","","{""Q0"":""Sad""}","[0]",""
"4297.759999986738","<p>How negative/positive was this feeling expressed in this musical clip</p>","","valence rating","html-slider-response","180","372495","0.0-2.0-4.29","wto40f559ergwfw","","","","40"
"1480.6600000010803","<p>How energetic/arousing was the feeling expressed in this musical clip</p>","","arousal rating","html-slider-response","181","373981","0.0-2.0-5.29","wto40f559ergwfw","","","","25"
"null","<div style=""font-size:60px;"">+</div>","null","fixation","html-keyboard-response","182","374982","0.0-2.0-0.30","wto40f559ergwfw","","","",""
"null","<div style=""font-size:60px;color:green"">+</div>","null","fixation","html-keyboard-response","183","375486","0.0-2.0-1.30","wto40f559ergwfw","","","",""
"null","audio/2_Inside.mp3","null","song","audio-keyboard-response","184","376489","0.0-2.0-2.30","wto40f559ergwfw","sad","","",""
"3608.3549999748357","","","emotion_rating","survey-multi-choice","185","380099","0.0-2.0-3.30","wto40f559ergwfw","","{""Q0"":""Sad""}","[0]",""
"1950.6600000313483","<p>How negative/positive was this feeling expressed in this musical clip</p>","","valence rating","html-slider-response","186","382053","0.0-2.0-4.30","wto40f559ergwfw","","","","10"
"2382.839999976568","<p>How energetic/arousing was the feeling expressed in this musical clip</p>","","arousal rating","html-slider-response","187","384437","0.0-2.0-5.30","wto40f559ergwfw","","","","50"
"null","<div style=""font-size:60px;"">+</div>","null","fixation","html-keyboard-response","188","385438","0.0-2.0-0.31","wto40f559ergwfw","","","",""
"null","<div style=""font-size:60px;color:green"">+</div>","null","fixation","html-keyboard-response","189","385939","0.0-2.0-1.31","wto40f559ergwfw","","","",""
"null","audio/3_Walk_on_the_wild_side.mp3","null","song","audio-keyboard-response","190","386943","0.0-2.0-2.31","wto40f559ergwfw","relaxed","","",""
"1432.9699999652803","","","emotion_rating","survey-multi-choice","191","388378","0.0-2.0-3.31","wto40f559ergwfw","","{""Q0"":""Relaxed""}","[0]",""
"2990.929999970831","<p>How negative/positive was this feeling expressed in this musical clip</p>","","valence rating","html-slider-response","192","391371","0.0-2.0-4.31","wto40f559ergwfw","","","","75"
"4783.210000023246","<p>How energetic/arousing was the feeling expressed in this musical clip</p>","","arousal rating","html-slider-response","193","396156","0.0-2.0-5.31","wto40f559ergwfw","","","","20"
"null","<div style=""font-size:60px;"">+</div>","null","fixation","html-keyboard-response","194","397158","0.0-2.0-0.32","wto40f559ergwfw","","","",""
"null","<div style=""font-size:60px;color:green"">+</div>","null","fixation","html-keyboard-response","195","397659","0.0-2.0-1.32","wto40f559ergwfw","","","",""
"null","audio/7_Here_Today.mp3","null","song","audio-keyboard-response","196","398661","0.0-2.0-2.32","wto40f559ergwfw","sad","","",""
"5111.27499997383","","","emotion_rating","survey-multi-choice","197","403773","0.0-2.0-3.32","wto40f559ergwfw","","{""Q0"":""Sad""}","[0]",""
"2139.5500000217","<p>How negative/positive was this feeling expressed in this musical clip</p>","","valence rating","html-slider-response","198","405914","0.0-2.0-4.32","wto40f559ergwfw","","","","14"
"2110.2149999933317","<p>How energetic/arousing was the feeling expressed in this musical clip</p>","","arousal rating","html-slider-response","199","408026","0.0-2.0-5.32","wto40f559ergwfw","","","","15"
"null","<div style=""font-size:60px;"">+</div>","null","fixation","html-keyboard-response","200","409029","0.0-2.0-0.33","wto40f559ergwfw","","","",""
"null","<div style=""font-size:60px;color:green"">+</div>","null","fixation","html-keyboard-response","201","409530","0.0-2.0-1.33","wto40f559ergwfw","","","",""
"null","audio/9_Pain_(Live_Version).mp3","null","song","audio-keyboard-response","202","410533","0.0-2.0-2.33","wto40f559ergwfw","angry","","",""
"1538.025000016205","","","emotion_rating","survey-multi-choice","203","412074","0.0-2.0-3.33","wto40f559ergwfw","","{""Q0"":""Angry""}","[0]",""
"2887.4599999981","<p>How negative/positive was this feeling expressed in this musical clip</p>","","valence rating","html-slider-response","204","414964","0.0-2.0-4.33","wto40f559ergwfw","","","","9"
"1758.57999996515","<p>How energetic/arousing was the feeling expressed in this musical clip</p>","","arousal rating","html-slider-response","205","416724","0.0-2.0-5.33","wto40f559ergwfw","","","","95"
"null","<div style=""font-size:60px;"">+</div>","null","fixation","html-keyboard-response","206","417725","0.0-2.0-0.34","wto40f559ergwfw","","","",""
"null","<div style=""font-size:60px;color:green"">+</div>","null","fixation","html-keyboard-response","207","418226","0.0-2.0-1.34","wto40f559ergwfw","","","",""
"null","audio/3_It_Only_Hurts_When_I'm_Breathing.mp3","null","song","audio-keyboard-response","208","419229","0.0-2.0-2.34","wto40f559ergwfw","sad","","",""
"2066.0299999872223","","","emotion_rating","survey-multi-choice","209","421300","0.0-2.0-3.34","wto40f559ergwfw","","{""Q0"":""Happy""}","[0]",""
"15276.170000026468","<p>How negative/positive was this feeling expressed in this musical clip</p>","","valence rating","html-slider-response","210","436584","0.0-2.0-4.34","wto40f559ergwfw","","","","50"
"3433.249999943655","<p>How energetic/arousing was the feeling expressed in this musical clip</p>","","arousal rating","html-slider-response","211","440021","0.0-2.0-5.34","wto40f559ergwfw","","","","66"
"null","<div style=""font-size:60px;"">+</div>","null","fixation","html-keyboard-response","212","441023","0.0-2.0-0.35","wto40f559ergwfw","","","",""
"null","<div style=""font-size:60px;color:green"">+</div>","null","fixation","html-keyboard-response","213","441525","0.0-2.0-1.35","wto40f559ergwfw","","","",""
"null","audio/13_Boser_Wolf.mp3","null","song","audio-keyboard-response","214","442532","0.0-2.0-2.35","wto40f559ergwfw","sad","","",""
"2194.240000040736","","","emotion_rating","survey-multi-choice","215","444728","0.0-2.0-3.35","wto40f559ergwfw","","{""Q0"":""Relaxed""}","[0]",""
"3269.0350000048056","<p>How negative/positive was this feeling expressed in this musical clip</p>","","valence rating","html-slider-response","216","448000","0.0-2.0-4.35","wto40f559ergwfw","","","","41"
"10570.280000043567","<p>How energetic/arousing was the feeling expressed in this musical clip</p>","","arousal rating","html-slider-response","217","458571","0.0-2.0-5.35","wto40f559ergwfw","","","","24"
"null","<div style=""font-size:60px;"">+</div>","null","fixation","html-keyboard-response","218","459574","0.0-2.0-0.36","wto40f559ergwfw","","","",""
"null","<div style=""font-size:60px;color:green"">+</div>","null","fixation","html-keyboard-response","219","460075","0.0-2.0-1.36","wto40f559ergwfw","","","",""
"null","audio/15_Here_Today.mp3","null","song","audio-keyboard-response","220","461078","0.0-2.0-2.36","wto40f559ergwfw","sad","","",""
"2023.5199999879114","","","emotion_rating","survey-multi-choice","221","463103","0.0-2.0-3.36","wto40f559ergwfw","","{""Q0"":""Sad""}","[0]",""
"1726.9950000336394","<p>How negative/positive was this feeling expressed in this musical clip</p>","","valence rating","html-slider-response","222","464834","0.0-2.0-4.36","wto40f559ergwfw","","","","11"
"1860.869999974966","<p>How energetic/arousing was the feeling expressed in this musical clip</p>","","arousal rating","html-slider-response","223","466699","0.0-2.0-5.36","wto40f559ergwfw","","","","8"
"null","<div style=""font-size:60px;"">+</div>","null","fixation","html-keyboard-response","224","467700","0.0-2.0-0.37","wto40f559ergwfw","","","",""
"null","<div style=""font-size:60px;color:green"">+</div>","null","fixation","html-keyboard-response","225","468201","0.0-2.0-1.37","wto40f559ergwfw","","","",""
"null","audio/11_Be_Happy.mp3","null","song","audio-keyboard-response","226","469211","0.0-2.0-2.37","wto40f559ergwfw","happy","","",""
"1738.0700000212528","","","emotion_rating","survey-multi-choice","227","470953","0.0-2.0-3.37","wto40f559ergwfw","","{""Q0"":""Happy""}","[0]",""
"1861.2800000119023","<p>How negative/positive was this feeling expressed in this musical clip</p>","","valence rating","html-slider-response","228","472816","0.0-2.0-4.37","wto40f559ergwfw","","","","80"
"2424.1049999836832","<p>How energetic/arousing was the feeling expressed in this musical clip</p>","","arousal rating","html-slider-response","229","475242","0.0-2.0-5.37","wto40f559ergwfw","","","","84"
"null","<div style=""font-size:60px;"">+</div>","null","fixation","html-keyboard-response","230","476244","0.0-2.0-0.38","wto40f559ergwfw","","","",""
"null","<div style=""font-size:60px;color:green"">+</div>","null","fixation","html-keyboard-response","231","476745","0.0-2.0-1.38","wto40f559ergwfw","","","",""
"null","audio/8_Restless.mp3","null","song","audio-keyboard-response","232","477748","0.0-2.0-2.38","wto40f559ergwfw","happy","","",""
"2888.7899999972433","","","emotion_rating","survey-multi-choice","233","480638","0.0-2.0-3.38","wto40f559ergwfw","","{""Q0"":""Happy""}","[0]",""
"2022.545000014361","<p>How negative/positive was this feeling expressed in this musical clip</p>","","valence rating","html-slider-response","234","482663","0.0-2.0-4.38","wto40f559ergwfw","","","","74"
"1661.3699999870732","<p>How energetic/arousing was the feeling expressed in this musical clip</p>","","arousal rating","html-slider-response","235","484333","0.0-2.0-5.38","wto40f559ergwfw","","","","35"
"null","<div style=""font-size:60px;"">+</div>","null","fixation","html-keyboard-response","236","485335","0.0-2.0-0.39","wto40f559ergwfw","","","",""
"null","<div style=""font-size:60px;color:green"">+</div>","null","fixation","html-keyboard-response","237","485838","0.0-2.0-1.39","wto40f559ergwfw","","","",""
"null","audio/12_Skinny_Love.mp3","null","song","audio-keyboard-response","238","486844","0.0-2.0-2.39","wto40f559ergwfw","sad","","",""
"2086.139999970328","","","emotion_rating","survey-multi-choice","239","488933","0.0-2.0-3.39","wto40f559ergwfw","","{""Q0"":""Sad""}","[0]",""
"3346.285000036005","<p>How negative/positive was this feeling expressed in this musical clip</p>","","valence rating","html-slider-response","240","492281","0.0-2.0-4.39","wto40f559ergwfw","","","","39"
"3344.459999992978","<p>How energetic/arousing was the feeling expressed in this musical clip</p>","","arousal rating","html-slider-response","241","495626","0.0-2.0-5.39","wto40f559ergwfw","","","","36"
"null","<div style=""font-size:60px;"">+</div>","null","fixation","html-keyboard-response","242","496628","0.0-2.0-0.40","wto40f559ergwfw","","","",""
"null","<div style=""font-size:60px;color:green"">+</div>","null","fixation","html-keyboard-response","243","497130","0.0-2.0-1.40","wto40f559ergwfw","","","",""
"null","audio/2_Boser_Wolf.mp3","null","song","audio-keyboard-response","244","498132","0.0-2.0-2.40","wto40f559ergwfw","sad","","",""
"6316.744999960065","","","emotion_rating","survey-multi-choice","245","504450","0.0-2.0-3.40","wto40f559ergwfw","","{""Q0"":""Sad""}","[0]",""
"2000.3600000054576","<p>How negative/positive was this feeling expressed in this musical clip</p>","","valence rating","html-slider-response","246","506453","0.0-2.0-4.40","wto40f559ergwfw","","","","38"
"4389.510000008158","<p>How energetic/arousing was the feeling expressed in this musical clip</p>","","arousal rating","html-slider-response","247","510844","0.0-2.0-5.40","wto40f559ergwfw","","","","33"
"null","<div style=""font-size:60px;"">+</div>","null","fixation","html-keyboard-response","248","511846","0.0-2.0-0.41","wto40f559ergwfw","","","",""
"null","<div style=""font-size:60px;color:green"">+</div>","null","fixation","html-keyboard-response","249","512348","0.0-2.0-1.41","wto40f559ergwfw","","","",""
"null","audio/2_On_A_Slow_Boat_To_China.mp3","null","song","audio-keyboard-response","250","513350","0.0-2.0-2.41","wto40f559ergwfw","relaxed","","",""
"3476.3549999915995","","","emotion_rating","survey-multi-choice","251","516828","0.0-2.0-3.41","wto40f559ergwfw","","{""Q0"":""Relaxed""}","[0]",""
"1028.649999992922","<p>How negative/positive was this feeling expressed in this musical clip</p>","","valence rating","html-slider-response","252","517857","0.0-2.0-4.41","wto40f559ergwfw","","","","50"
"1141.5649999980815","<p>How energetic/arousing was the feeling expressed in this musical clip</p>","","arousal rating","html-slider-response","253","519000","0.0-2.0-5.41","wto40f559ergwfw","","","","50"
"null","<div style=""font-size:60px;"">+</div>","null","fixation","html-keyboard-response","254","520002","0.0-2.0-0.42","wto40f559ergwfw","","","",""
"null","<div style=""font-size:60px;color:green"">+</div>","null","fixation","html-keyboard-response","255","520503","0.0-2.0-1.42","wto40f559ergwfw","","","",""
"null","audio/2_Love's_Requiem.mp3","null","song","audio-keyboard-response","256","521506","0.0-2.0-2.42","wto40f559ergwfw","sad","","",""
"1923.0450000031851","","","emotion_rating","survey-multi-choice","257","523433","0.0-2.0-3.42","wto40f559ergwfw","","{""Q0"":""Sad""}","[0]",""
"1634.8899999866262","<p>How negative/positive was this feeling expressed in this musical clip</p>","","valence rating","html-slider-response","258","525073","0.0-2.0-4.42","wto40f559ergwfw","","","","26"
"2994.6400000480935","<p>How energetic/arousing was the feeling expressed in this musical clip</p>","","arousal rating","html-slider-response","259","528072","0.0-2.0-5.42","wto40f559ergwfw","","","","66"
"null","<div style=""font-size:60px;"">+</div>","null","fixation","html-keyboard-response","260","529076","0.0-2.0-0.43","wto40f559ergwfw","","","",""
"null","<div style=""font-size:60px;color:green"">+</div>","null","fixation","html-keyboard-response","261","529579","0.0-2.0-1.43","wto40f559ergwfw","","","",""
"null","audio/2_Sweet_Song.mp3","null","song","audio-keyboard-response","262","530583","0.0-2.0-2.43","wto40f559ergwfw","relaxed","","",""
"1639.4299999810755","","","emotion_rating","survey-multi-choice","263","532223","0.0-2.0-3.43","wto40f559ergwfw","","{""Q0"":""Sad""}","[0]",""
"1734.470000024885","<p>How negative/positive was this feeling expressed in this musical clip</p>","","valence rating","html-slider-response","264","533960","0.0-2.0-4.43","wto40f559ergwfw","","","","17"
"1215.734999976121","<p>How energetic/arousing was the feeling expressed in this musical clip</p>","","arousal rating","html-slider-response","265","535178","0.0-2.0-5.43","wto40f559ergwfw","","","","15"
"null","<div style=""font-size:60px;"">+</div>","null","fixation","html-keyboard-response","266","536180","0.0-2.0-0.44","wto40f559ergwfw","","","",""
"null","<div style=""font-size:60px;color:green"">+</div>","null","fixation","html-keyboard-response","267","536682","0.0-2.0-1.44","wto40f559ergwfw","","","",""
"null","audio/4_Come_On_Baby.mp3","null","song","audio-keyboard-response","268","537694","0.0-2.0-2.44","wto40f559ergwfw","relaxed","","",""
"2846.094999986235","","","emotion_rating","survey-multi-choice","269","540542","0.0-2.0-3.44","wto40f559ergwfw","","{""Q0"":""Relaxed""}","[0]",""
"4112.09000000963","<p>How negative/positive was this feeling expressed in this musical clip</p>","","valence rating","html-slider-response","270","544658","0.0-2.0-4.44","wto40f559ergwfw","","","","33"
"3679.2099999729544","<p>How energetic/arousing was the feeling expressed in this musical clip</p>","","arousal rating","html-slider-response","271","548343","0.0-2.0-5.44","wto40f559ergwfw","","","","0"
