[{"view_history":"[{\"page_index\":0,\"viewing_time\":176175.6000000023},{\"page_index\":1,\"viewing_time\":1258.4749999950873},{\"page_index\":2,\"viewing_time\":3701.295000006212},{\"page_index\":3,\"viewing_time\":4009.3899999919813},{\"page_index\":4,\"viewing_time\":3688.460000004852},{\"page_index\":5,\"viewing_time\":3660.8799999958137},{\"page_index\":6,\"viewing_time\":5863.649999999325},{\"page_index\":7,\"viewing_time\":6346.725000010338}]","rt":204707.37499999814,"trial_type":"instructions","trial_index":0,"time_elapsed":366041,"internal_node_id":"0.0-0.0","subject":"lr3mz0q1ezzvemg"},{"rt":9424.165000003995,"stimulus":"<p>In this part of the experiment you will hear a short musical clip and then shortly after view a face</p><br><br><p><strong> If the emotion in the song and the face match the press the left arrow key (&larr;)</p><br><p>If the emotion in the song and the face do not match then press the right arrow key (&rarr;) </strong><p>Please be as quick and accurate as possible</p><p>Press the space bar to begin</p>","key_press":32,"block":"face","task":"instruction","trial_type":"html-keyboard-response","trial_index":1,"time_elapsed":375470,"internal_node_id":"0.0-1.0-0.0-0.0","subject":"lr3mz0q1ezzvemg"},{"rt":null,"stimulus":"<div style=\"font-size:60px;\">+</div>","key_press":null,"block":"face","trial":"false","test_part":"iti","trial_type":"html-keyboard-response","trial_index":2,"time_elapsed":376972,"internal_node_id":"0.0-1.0-0.0-1.0-0.0","subject":"lr3mz0q1ezzvemg"},{"rt":null,"stimulus":"audio/15_Bunkertor_7.mp3","key_press":null,"block":"face","trial":"false","trial_type":"audio-keyboard-response","trial_index":3,"time_elapsed":377977,"internal_node_id":"0.0-1.0-0.0-1.0-1.0","subject":"lr3mz0q1ezzvemg"},{"rt":null,"stimulus":"<div style=\"font-size:60px;\">+</div>","key_press":null,"block":"face","trial":"false","test_part":"isi","trial_type":"html-keyboard-response","trial_index":4,"time_elapsed":378179,"internal_node_id":"0.0-1.0-0.0-1.0-2.0","subject":"lr3mz0q1ezzvemg"},{"rt":1151.7949999979464,"stimulus":"img/BF05ANS.JPG","key_press":37,"block":"face","trial":"false","task":"face_practice_target","trial_type":"image-keyboard-response","trial_index":5,"time_elapsed":379335,"internal_node_id":"0.0-1.0-0.0-1.0-3.0","subject":"lr3mz0q1ezzvemg","correct":true},{"rt":8268.274999994901,"stimulus":"<p>Correct! The emotions do match!</p><br> Press the spacebar to continue to the experimental trials","key_press":39,"block":"face","trial":"false","trial_type":"html-keyboard-response","trial_index":6,"time_elapsed":387604,"internal_node_id":"0.0-1.0-0.0-1.0-4.0","subject":"lr3mz0q1ezzvemg"},{"rt":11079.624999998487,"stimulus":"The practice trial is now complete. Press the spacebar to begin the experimental trials","key_press":32,"block":"face","trial":"false","trial_type":"html-keyboard-response","trial_index":7,"time_elapsed":398685,"internal_node_id":"0.0-1.0-0.0-1.0-5.0","subject":"lr3mz0q1ezzvemg"},{"rt":null,"stimulus":"<div style=\"font-size:60px;\">+</div>","key_press":null,"block":"face","trial":"true","test_part":"iti","trial_type":"html-keyboard-response","trial_index":8,"time_elapsed":400187,"internal_node_id":"0.0-1.0-0.0-2.0-0.0","subject":"lr3mz0q1ezzvemg"},{"rt":null,"stimulus":"audio/2_Loves_Requiem.mp3","key_press":null,"block":"face","trial":"true","task":"cue","cue_song":"audio/2_Loves_Requiem.mp3","cue_emotion":"sad","trial_type":"audio-keyboard-response","trial_index":9,"time_elapsed":401194,"internal_node_id":"0.0-1.0-0.0-2.0-1.0","subject":"lr3mz0q1ezzvemg"},{"rt":null,"stimulus":"<div style=\"font-size:60px;\">+</div>","key_press":null,"block":"face","trial":"true","test_part":"isi","trial_type":"html-keyboard-response","trial_index":10,"time_elapsed":401395,"internal_node_id":"0.0-1.0-0.0-2.0-2.0","subject":"lr3mz0q1ezzvemg"},{"rt":1205.3449999948498,"stimulus":"img/BM08SAS.JPG","key_press":39,"block":"face","trial":"true","task":"target","target_stimulus":"img/BM08SAS.JPG","target_emotion":"sad","condition":"congruent","trial_type":"image-keyboard-response","trial_index":11,"time_elapsed":402601,"internal_node_id":"0.0-1.0-0.0-2.0-3.0","subject":"lr3mz0q1ezzvemg"},{"rt":null,"stimulus":"<div style=\"font-size:60px;\">+</div>","key_press":null,"block":"face","trial":"true","test_part":"iti","trial_type":"html-keyboard-response","trial_index":12,"time_elapsed":404106,"internal_node_id":"0.0-1.0-0.0-2.0-0.1","subject":"lr3mz0q1ezzvemg"},{"rt":null,"stimulus":"audio/21_Skank_Down.mp3","key_press":null,"block":"face","trial":"true","task":"cue","cue_song":"audio/21_Skank_Down.mp3","cue_emotion":"happy","trial_type":"audio-keyboard-response","trial_index":13,"time_elapsed":405107,"internal_node_id":"0.0-1.0-0.0-2.0-1.1","subject":"lr3mz0q1ezzvemg"},{"rt":null,"stimulus":"<div style=\"font-size:60px;\">+</div>","key_press":null,"block":"face","trial":"true","test_part":"isi","trial_type":"html-keyboard-response","trial_index":14,"time_elapsed":405313,"internal_node_id":"0.0-1.0-0.0-2.0-2.1","subject":"lr3mz0q1ezzvemg"},{"rt":1524.6400000032736,"stimulus":"img/BM08ANS.JPG","key_press":39,"block":"face","trial":"true","task":"target","target_stimulus":"img/BM08ANS.JPG","target_emotion":"angry","condition":"incongruent","trial_type":"image-keyboard-response","trial_index":15,"time_elapsed":406838,"internal_node_id":"0.0-1.0-0.0-2.0-3.1","subject":"lr3mz0q1ezzvemg"},{"rt":null,"stimulus":"<div style=\"font-size:60px;\">+</div>","key_press":null,"block":"face","trial":"true","test_part":"iti","trial_type":"html-keyboard-response","trial_index":16,"time_elapsed":408339,"internal_node_id":"0.0-1.0-0.0-2.0-0.2","subject":"lr3mz0q1ezzvemg"},{"rt":null,"stimulus":"audio/8_Fire_And_Rain__(LP_Version).mp3","key_press":null,"block":"face","trial":"true","task":"cue","cue_song":"audio/8_Fire_And_Rain__(LP_Version).mp3","cue_emotion":"sad","trial_type":"audio-keyboard-response","trial_index":17,"time_elapsed":409346,"internal_node_id":"0.0-1.0-0.0-2.0-1.2","subject":"lr3mz0q1ezzvemg"},{"rt":null,"stimulus":"<div style=\"font-size:60px;\">+</div>","key_press":null,"block":"face","trial":"true","test_part":"isi","trial_type":"html-keyboard-response","trial_index":18,"time_elapsed":409551,"internal_node_id":"0.0-1.0-0.0-2.0-2.2","subject":"lr3mz0q1ezzvemg"},{"rt":1195.2149999997346,"stimulus":"img/BM08HAS.JPG","key_press":39,"block":"face","trial":"true","task":"target","target_stimulus":"img/BM08HAS.JPG","target_emotion":"happy","condition":"incongruent","trial_type":"image-keyboard-response","trial_index":19,"time_elapsed":410747,"internal_node_id":"0.0-1.0-0.0-2.0-3.2","subject":"lr3mz0q1ezzvemg"},{"rt":null,"stimulus":"<div style=\"font-size:60px;\">+</div>","key_press":null,"block":"face","trial":"true","test_part":"iti","trial_type":"html-keyboard-response","trial_index":20,"time_elapsed":412249,"internal_node_id":"0.0-1.0-0.0-2.0-0.3","subject":"lr3mz0q1ezzvemg"},{"rt":null,"stimulus":"audio/5_Valerie.mp3","key_press":null,"block":"face","trial":"true","task":"cue","cue_song":"audio/5_Valerie.mp3","cue_emotion":"happy","trial_type":"audio-keyboard-response","trial_index":21,"time_elapsed":413251,"internal_node_id":"0.0-1.0-0.0-2.0-1.3","subject":"lr3mz0q1ezzvemg"},{"rt":null,"stimulus":"<div style=\"font-size:60px;\">+</div>","key_press":null,"block":"face","trial":"true","test_part":"isi","trial_type":"html-keyboard-response","trial_index":22,"time_elapsed":413453,"internal_node_id":"0.0-1.0-0.0-2.0-2.3","subject":"lr3mz0q1ezzvemg"},{"rt":523.4899999923073,"stimulus":"img/BF34HAS.JPG","key_press":37,"block":"face","trial":"true","task":"target","target_stimulus":"img/BF34HAS.JPG","target_emotion":"happy","condition":"congruent","trial_type":"image-keyboard-response","trial_index":23,"time_elapsed":413978,"internal_node_id":"0.0-1.0-0.0-2.0-3.3","subject":"lr3mz0q1ezzvemg"},{"rt":null,"stimulus":"<div style=\"font-size:60px;\">+</div>","key_press":null,"block":"face","trial":"true","test_part":"iti","trial_type":"html-keyboard-response","trial_index":24,"time_elapsed":415481,"internal_node_id":"0.0-1.0-0.0-2.0-0.4","subject":"lr3mz0q1ezzvemg"},{"rt":null,"stimulus":"audio/1_Be_Happy.mp3","key_press":null,"block":"face","trial":"true","task":"cue","cue_song":"audio/1_Be_Happy.mp3","cue_emotion":"happy","trial_type":"audio-keyboard-response","trial_index":25,"time_elapsed":416486,"internal_node_id":"0.0-1.0-0.0-2.0-1.4","subject":"lr3mz0q1ezzvemg"},{"rt":null,"stimulus":"<div style=\"font-size:60px;\">+</div>","key_press":null,"block":"face","trial":"true","test_part":"isi","trial_type":"html-keyboard-response","trial_index":26,"time_elapsed":416688,"internal_node_id":"0.0-1.0-0.0-2.0-2.4","subject":"lr3mz0q1ezzvemg"},{"rt":987.9750000109198,"stimulus":"img/BF34ANS.JPG","key_press":39,"block":"face","trial":"true","task":"target","target_stimulus":"img/BF34ANS.JPG","target_emotion":"angry","condition":"incongruent","trial_type":"image-keyboard-response","trial_index":27,"time_elapsed":417677,"internal_node_id":"0.0-1.0-0.0-2.0-3.4","subject":"lr3mz0q1ezzvemg"},{"rt":null,"stimulus":"<div style=\"font-size:60px;\">+</div>","key_press":null,"block":"face","trial":"true","test_part":"iti","trial_type":"html-keyboard-response","trial_index":28,"time_elapsed":419178,"internal_node_id":"0.0-1.0-0.0-2.0-0.5","subject":"lr3mz0q1ezzvemg"},{"rt":null,"stimulus":"audio/26_Make_Light.mp3","key_press":null,"block":"face","trial":"true","task":"cue","cue_song":"audio/26_Make_Light.mp3","cue_emotion":"happy","trial_type":"audio-keyboard-response","trial_index":29,"time_elapsed":420180,"internal_node_id":"0.0-1.0-0.0-2.0-1.5","subject":"lr3mz0q1ezzvemg"},{"rt":null,"stimulus":"<div style=\"font-size:60px;\">+</div>","key_press":null,"block":"face","trial":"true","test_part":"isi","trial_type":"html-keyboard-response","trial_index":30,"time_elapsed":420382,"internal_node_id":"0.0-1.0-0.0-2.0-2.5","subject":"lr3mz0q1ezzvemg"},{"rt":709.7050000011222,"stimulus":"img/BM08ANS.JPG","key_press":39,"block":"face","trial":"true","task":"target","target_stimulus":"img/BM08ANS.JPG","target_emotion":"angry","condition":"incongruent","trial_type":"image-keyboard-response","trial_index":31,"time_elapsed":421093,"internal_node_id":"0.0-1.0-0.0-2.0-3.5","subject":"lr3mz0q1ezzvemg"},{"rt":null,"stimulus":"<div style=\"font-size:60px;\">+</div>","key_press":null,"block":"face","trial":"true","test_part":"iti","trial_type":"html-keyboard-response","trial_index":32,"time_elapsed":422598,"internal_node_id":"0.0-1.0-0.0-2.0-0.6","subject":"lr3mz0q1ezzvemg"},{"rt":null,"stimulus":"audio/3_Old_Blacktop.mp3","key_press":null,"block":"face","trial":"true","task":"cue","cue_song":"audio/3_Old_Blacktop.mp3","cue_emotion":"sad","trial_type":"audio-keyboard-response","trial_index":33,"time_elapsed":423604,"internal_node_id":"0.0-1.0-0.0-2.0-1.6","subject":"lr3mz0q1ezzvemg"},{"rt":null,"stimulus":"<div style=\"font-size:60px;\">+</div>","key_press":null,"block":"face","trial":"true","test_part":"isi","trial_type":"html-keyboard-response","trial_index":34,"time_elapsed":423809,"internal_node_id":"0.0-1.0-0.0-2.0-2.6","subject":"lr3mz0q1ezzvemg"},{"rt":794.1250000003492,"stimulus":"img/BF34SAS.JPG","key_press":37,"block":"face","trial":"true","task":"target","target_stimulus":"img/BF34SAS.JPG","target_emotion":"sad","condition":"congruent","trial_type":"image-keyboard-response","trial_index":35,"time_elapsed":424605,"internal_node_id":"0.0-1.0-0.0-2.0-3.6","subject":"lr3mz0q1ezzvemg"},{"rt":null,"stimulus":"<div style=\"font-size:60px;\">+</div>","key_press":null,"block":"face","trial":"true","test_part":"iti","trial_type":"html-keyboard-response","trial_index":36,"time_elapsed":426107,"internal_node_id":"0.0-1.0-0.0-2.0-0.7","subject":"lr3mz0q1ezzvemg"},{"rt":null,"stimulus":"audio/5_Valerie.mp3","key_press":null,"block":"face","trial":"true","task":"cue","cue_song":"audio/5_Valerie.mp3","cue_emotion":"happy","trial_type":"audio-keyboard-response","trial_index":37,"time_elapsed":427113,"internal_node_id":"0.0-1.0-0.0-2.0-1.7","subject":"lr3mz0q1ezzvemg"},{"rt":null,"stimulus":"<div style=\"font-size:60px;\">+</div>","key_press":null,"block":"face","trial":"true","test_part":"isi","trial_type":"html-keyboard-response","trial_index":38,"time_elapsed":427315,"internal_node_id":"0.0-1.0-0.0-2.0-2.7","subject":"lr3mz0q1ezzvemg"},{"rt":580.8849999884842,"stimulus":"img/BM08SAS.JPG","key_press":39,"block":"face","trial":"true","task":"target","target_stimulus":"img/BM08SAS.JPG","target_emotion":"sad","condition":"incongruent","trial_type":"image-keyboard-response","trial_index":39,"time_elapsed":427897,"internal_node_id":"0.0-1.0-0.0-2.0-3.7","subject":"lr3mz0q1ezzvemg"},{"rt":null,"stimulus":"<div style=\"font-size:60px;\">+</div>","key_press":null,"block":"face","trial":"true","test_part":"iti","trial_type":"html-keyboard-response","trial_index":40,"time_elapsed":429401,"internal_node_id":"0.0-1.0-0.0-2.0-0.8","subject":"lr3mz0q1ezzvemg"},{"rt":null,"stimulus":"audio/21_Skank_Down.mp3","key_press":null,"block":"face","trial":"true","task":"cue","cue_song":"audio/21_Skank_Down.mp3","cue_emotion":"happy","trial_type":"audio-keyboard-response","trial_index":41,"time_elapsed":430405,"internal_node_id":"0.0-1.0-0.0-2.0-1.8","subject":"lr3mz0q1ezzvemg"},{"rt":null,"stimulus":"<div style=\"font-size:60px;\">+</div>","key_press":null,"block":"face","trial":"true","test_part":"isi","trial_type":"html-keyboard-response","trial_index":42,"time_elapsed":430608,"internal_node_id":"0.0-1.0-0.0-2.0-2.8","subject":"lr3mz0q1ezzvemg"},{"rt":872.5850000046194,"stimulus":"img/BF34HAS.JPG","key_press":37,"block":"face","trial":"true","task":"target","target_stimulus":"img/BF34HAS.JPG","target_emotion":"happy","condition":"congruent","trial_type":"image-keyboard-response","trial_index":43,"time_elapsed":431482,"internal_node_id":"0.0-1.0-0.0-2.0-3.8","subject":"lr3mz0q1ezzvemg"},{"rt":null,"stimulus":"<div style=\"font-size:60px;\">+</div>","key_press":null,"block":"face","trial":"true","test_part":"iti","trial_type":"html-keyboard-response","trial_index":44,"time_elapsed":432986,"internal_node_id":"0.0-1.0-0.0-2.0-0.9","subject":"lr3mz0q1ezzvemg"},{"rt":null,"stimulus":"audio/26_Make_Light.mp3","key_press":null,"block":"face","trial":"true","task":"cue","cue_song":"audio/26_Make_Light.mp3","cue_emotion":"happy","trial_type":"audio-keyboard-response","trial_index":45,"time_elapsed":433991,"internal_node_id":"0.0-1.0-0.0-2.0-1.9","subject":"lr3mz0q1ezzvemg"},{"rt":null,"stimulus":"<div style=\"font-size:60px;\">+</div>","key_press":null,"block":"face","trial":"true","test_part":"isi","trial_type":"html-keyboard-response","trial_index":46,"time_elapsed":434194,"internal_node_id":"0.0-1.0-0.0-2.0-2.9","subject":"lr3mz0q1ezzvemg"},{"rt":554.1999999986729,"stimulus":"img/BF34HAS.JPG","key_press":37,"block":"face","trial":"true","task":"target","target_stimulus":"img/BF34HAS.JPG","target_emotion":"happy","condition":"congruent","trial_type":"image-keyboard-response","trial_index":47,"time_elapsed":434749,"internal_node_id":"0.0-1.0-0.0-2.0-3.9","subject":"lr3mz0q1ezzvemg"},{"rt":null,"stimulus":"<div style=\"font-size:60px;\">+</div>","key_press":null,"block":"face","trial":"true","test_part":"iti","trial_type":"html-keyboard-response","trial_index":48,"time_elapsed":436251,"internal_node_id":"0.0-1.0-0.0-2.0-0.10","subject":"lr3mz0q1ezzvemg"},{"rt":null,"stimulus":"audio/1_Be_Happy.mp3","key_press":null,"block":"face","trial":"true","task":"cue","cue_song":"audio/1_Be_Happy.mp3","cue_emotion":"happy","trial_type":"audio-keyboard-response","trial_index":49,"time_elapsed":437257,"internal_node_id":"0.0-1.0-0.0-2.0-1.10","subject":"lr3mz0q1ezzvemg"},{"rt":null,"stimulus":"<div style=\"font-size:60px;\">+</div>","key_press":null,"block":"face","trial":"true","test_part":"isi","trial_type":"html-keyboard-response","trial_index":50,"time_elapsed":437463,"internal_node_id":"0.0-1.0-0.0-2.0-2.10","subject":"lr3mz0q1ezzvemg"},{"rt":862.475000001723,"stimulus":"img/BF34HAS.JPG","key_press":37,"block":"face","trial":"true","task":"target","target_stimulus":"img/BF34HAS.JPG","target_emotion":"happy","condition":"congruent","trial_type":"image-keyboard-response","trial_index":51,"time_elapsed":438326,"internal_node_id":"0.0-1.0-0.0-2.0-3.10","subject":"lr3mz0q1ezzvemg"},{"rt":null,"stimulus":"<div style=\"font-size:60px;\">+</div>","key_press":null,"block":"face","trial":"true","test_part":"iti","trial_type":"html-keyboard-response","trial_index":52,"time_elapsed":439828,"internal_node_id":"0.0-1.0-0.0-2.0-0.11","subject":"lr3mz0q1ezzvemg"},{"rt":null,"stimulus":"audio/5_Valerie.mp3","key_press":null,"block":"face","trial":"true","task":"cue","cue_song":"audio/5_Valerie.mp3","cue_emotion":"happy","trial_type":"audio-keyboard-response","trial_index":53,"time_elapsed":440833,"internal_node_id":"0.0-1.0-0.0-2.0-1.11","subject":"lr3mz0q1ezzvemg"},{"rt":null,"stimulus":"<div style=\"font-size:60px;\">+</div>","key_press":null,"block":"face","trial":"true","test_part":"isi","trial_type":"html-keyboard-response","trial_index":54,"time_elapsed":441038,"internal_node_id":"0.0-1.0-0.0-2.0-2.11","subject":"lr3mz0q1ezzvemg"},{"rt":571.3200000027427,"stimulus":"img/BF34SAS.JPG","key_press":39,"block":"face","trial":"true","task":"target","target_stimulus":"img/BF34SAS.JPG","target_emotion":"sad","condition":"incongruent","trial_type":"image-keyboard-response","trial_index":55,"time_elapsed":441610,"internal_node_id":"0.0-1.0-0.0-2.0-3.11","subject":"lr3mz0q1ezzvemg"},{"rt":null,"stimulus":"<div style=\"font-size:60px;\">+</div>","key_press":null,"block":"face","trial":"true","test_part":"iti","trial_type":"html-keyboard-response","trial_index":56,"time_elapsed":443112,"internal_node_id":"0.0-1.0-0.0-2.0-0.12","subject":"lr3mz0q1ezzvemg"},{"rt":null,"stimulus":"audio/3_Old_Blacktop.mp3","key_press":null,"block":"face","trial":"true","task":"cue","cue_song":"audio/3_Old_Blacktop.mp3","cue_emotion":"sad","trial_type":"audio-keyboard-response","trial_index":57,"time_elapsed":444118,"internal_node_id":"0.0-1.0-0.0-2.0-1.12","subject":"lr3mz0q1ezzvemg"},{"rt":null,"stimulus":"<div style=\"font-size:60px;\">+</div>","key_press":null,"block":"face","trial":"true","test_part":"isi","trial_type":"html-keyboard-response","trial_index":58,"time_elapsed":444319,"internal_node_id":"0.0-1.0-0.0-2.0-2.12","subject":"lr3mz0q1ezzvemg"},{"rt":1217.9699999978766,"stimulus":"img/BM08SAS.JPG","key_press":39,"block":"face","trial":"true","task":"target","target_stimulus":"img/BM08SAS.JPG","target_emotion":"sad","condition":"congruent","trial_type":"image-keyboard-response","trial_index":59,"time_elapsed":445538,"internal_node_id":"0.0-1.0-0.0-2.0-3.12","subject":"lr3mz0q1ezzvemg"},{"rt":null,"stimulus":"<div style=\"font-size:60px;\">+</div>","key_press":null,"block":"face","trial":"true","test_part":"iti","trial_type":"html-keyboard-response","trial_index":60,"time_elapsed":447043,"internal_node_id":"0.0-1.0-0.0-2.0-0.13","subject":"lr3mz0q1ezzvemg"},{"rt":null,"stimulus":"audio/5_Valerie.mp3","key_press":null,"block":"face","trial":"true","task":"cue","cue_song":"audio/5_Valerie.mp3","cue_emotion":"happy","trial_type":"audio-keyboard-response","trial_index":61,"time_elapsed":448045,"internal_node_id":"0.0-1.0-0.0-2.0-1.13","subject":"lr3mz0q1ezzvemg"},{"rt":null,"stimulus":"<div style=\"font-size:60px;\">+</div>","key_press":null,"block":"face","trial":"true","test_part":"isi","trial_type":"html-keyboard-response","trial_index":62,"time_elapsed":448247,"internal_node_id":"0.0-1.0-0.0-2.0-2.13","subject":"lr3mz0q1ezzvemg"},{"rt":835.3649999917252,"stimulus":"img/BF34ANS.JPG","key_press":39,"block":"face","trial":"true","task":"target","target_stimulus":"img/BF34ANS.JPG","target_emotion":"angry","condition":"incongruent","trial_type":"image-keyboard-response","trial_index":63,"time_elapsed":449083,"internal_node_id":"0.0-1.0-0.0-2.0-3.13","subject":"lr3mz0q1ezzvemg"},{"rt":null,"stimulus":"<div style=\"font-size:60px;\">+</div>","key_press":null,"block":"face","trial":"true","test_part":"iti","trial_type":"html-keyboard-response","trial_index":64,"time_elapsed":450589,"internal_node_id":"0.0-1.0-0.0-2.0-0.14","subject":"lr3mz0q1ezzvemg"},{"rt":null,"stimulus":"audio/2_Loves_Requiem.mp3","key_press":null,"block":"face","trial":"true","task":"cue","cue_song":"audio/2_Loves_Requiem.mp3","cue_emotion":"sad","trial_type":"audio-keyboard-response","trial_index":65,"time_elapsed":451594,"internal_node_id":"0.0-1.0-0.0-2.0-1.14","subject":"lr3mz0q1ezzvemg"},{"rt":null,"stimulus":"<div style=\"font-size:60px;\">+</div>","key_press":null,"block":"face","trial":"true","test_part":"isi","trial_type":"html-keyboard-response","trial_index":66,"time_elapsed":451800,"internal_node_id":"0.0-1.0-0.0-2.0-2.14","subject":"lr3mz0q1ezzvemg"},{"rt":821.1850000079721,"stimulus":"img/BF34HAS.JPG","key_press":39,"block":"face","trial":"true","task":"target","target_stimulus":"img/BF34HAS.JPG","target_emotion":"happy","condition":"incongruent","trial_type":"image-keyboard-response","trial_index":67,"time_elapsed":452622,"internal_node_id":"0.0-1.0-0.0-2.0-3.14","subject":"lr3mz0q1ezzvemg"},{"rt":null,"stimulus":"<div style=\"font-size:60px;\">+</div>","key_press":null,"block":"face","trial":"true","test_part":"iti","trial_type":"html-keyboard-response","trial_index":68,"time_elapsed":454124,"internal_node_id":"0.0-1.0-0.0-2.0-0.15","subject":"lr3mz0q1ezzvemg"},{"rt":null,"stimulus":"audio/12_Skinny_Love.mp3","key_press":null,"block":"face","trial":"true","task":"cue","cue_song":"audio/12_Skinny_Love.mp3","cue_emotion":"sad","trial_type":"audio-keyboard-response","trial_index":69,"time_elapsed":455133,"internal_node_id":"0.0-1.0-0.0-2.0-1.15","subject":"lr3mz0q1ezzvemg"},{"rt":null,"stimulus":"<div style=\"font-size:60px;\">+</div>","key_press":null,"block":"face","trial":"true","test_part":"isi","trial_type":"html-keyboard-response","trial_index":70,"time_elapsed":455335,"internal_node_id":"0.0-1.0-0.0-2.0-2.15","subject":"lr3mz0q1ezzvemg"},{"rt":933.9299999992363,"stimulus":"img/BM08ANS.JPG","key_press":37,"block":"face","trial":"true","task":"target","target_stimulus":"img/BM08ANS.JPG","target_emotion":"angry","condition":"incongruent","trial_type":"image-keyboard-response","trial_index":71,"time_elapsed":456270,"internal_node_id":"0.0-1.0-0.0-2.0-3.15","subject":"lr3mz0q1ezzvemg"},{"rt":null,"stimulus":"<div style=\"font-size:60px;\">+</div>","key_press":null,"block":"face","trial":"true","test_part":"iti","trial_type":"html-keyboard-response","trial_index":72,"time_elapsed":457773,"internal_node_id":"0.0-1.0-0.0-2.0-0.16","subject":"lr3mz0q1ezzvemg"},{"rt":null,"stimulus":"audio/8_Fire_And_Rain__(LP_Version).mp3","key_press":null,"block":"face","trial":"true","task":"cue","cue_song":"audio/8_Fire_And_Rain__(LP_Version).mp3","cue_emotion":"sad","trial_type":"audio-keyboard-response","trial_index":73,"time_elapsed":458778,"internal_node_id":"0.0-1.0-0.0-2.0-1.16","subject":"lr3mz0q1ezzvemg"},{"rt":null,"stimulus":"<div style=\"font-size:60px;\">+</div>","key_press":null,"block":"face","trial":"true","test_part":"isi","trial_type":"html-keyboard-response","trial_index":74,"time_elapsed":458981,"internal_node_id":"0.0-1.0-0.0-2.0-2.16","subject":"lr3mz0q1ezzvemg"},{"rt":885.3400000080001,"stimulus":"img/BF34HAS.JPG","key_press":39,"block":"face","trial":"true","task":"target","target_stimulus":"img/BF34HAS.JPG","target_emotion":"happy","condition":"incongruent","trial_type":"image-keyboard-response","trial_index":75,"time_elapsed":459867,"internal_node_id":"0.0-1.0-0.0-2.0-3.16","subject":"lr3mz0q1ezzvemg"},{"rt":null,"stimulus":"<div style=\"font-size:60px;\">+</div>","key_press":null,"block":"face","trial":"true","test_part":"iti","trial_type":"html-keyboard-response","trial_index":76,"time_elapsed":461373,"internal_node_id":"0.0-1.0-0.0-2.0-0.17","subject":"lr3mz0q1ezzvemg"},{"rt":null,"stimulus":"audio/1_Be_Happy.mp3","key_press":null,"block":"face","trial":"true","task":"cue","cue_song":"audio/1_Be_Happy.mp3","cue_emotion":"happy","trial_type":"audio-keyboard-response","trial_index":77,"time_elapsed":462379,"internal_node_id":"0.0-1.0-0.0-2.0-1.17","subject":"lr3mz0q1ezzvemg"},{"rt":null,"stimulus":"<div style=\"font-size:60px;\">+</div>","key_press":null,"block":"face","trial":"true","test_part":"isi","trial_type":"html-keyboard-response","trial_index":78,"time_elapsed":462580,"internal_node_id":"0.0-1.0-0.0-2.0-2.17","subject":"lr3mz0q1ezzvemg"},{"rt":1144.0799999982119,"stimulus":"img/BF34SAS.JPG","key_press":39,"block":"face","trial":"true","task":"target","target_stimulus":"img/BF34SAS.JPG","target_emotion":"sad","condition":"incongruent","trial_type":"image-keyboard-response","trial_index":79,"time_elapsed":463726,"internal_node_id":"0.0-1.0-0.0-2.0-3.17","subject":"lr3mz0q1ezzvemg"},{"rt":null,"stimulus":"<div style=\"font-size:60px;\">+</div>","key_press":null,"block":"face","trial":"true","test_part":"iti","trial_type":"html-keyboard-response","trial_index":80,"time_elapsed":465229,"internal_node_id":"0.0-1.0-0.0-2.0-0.18","subject":"lr3mz0q1ezzvemg"},{"rt":null,"stimulus":"audio/12_Skinny_Love.mp3","key_press":null,"block":"face","trial":"true","task":"cue","cue_song":"audio/12_Skinny_Love.mp3","cue_emotion":"sad","trial_type":"audio-keyboard-response","trial_index":81,"time_elapsed":466235,"internal_node_id":"0.0-1.0-0.0-2.0-1.18","subject":"lr3mz0q1ezzvemg"},{"rt":null,"stimulus":"<div style=\"font-size:60px;\">+</div>","key_press":null,"block":"face","trial":"true","test_part":"isi","trial_type":"html-keyboard-response","trial_index":82,"time_elapsed":466441,"internal_node_id":"0.0-1.0-0.0-2.0-2.18","subject":"lr3mz0q1ezzvemg"},{"rt":860.9099999885075,"stimulus":"img/BF34SAS.JPG","key_press":37,"block":"face","trial":"true","task":"target","target_stimulus":"img/BF34SAS.JPG","target_emotion":"sad","condition":"congruent","trial_type":"image-keyboard-response","trial_index":83,"time_elapsed":467303,"internal_node_id":"0.0-1.0-0.0-2.0-3.18","subject":"lr3mz0q1ezzvemg"},{"rt":null,"stimulus":"<div style=\"font-size:60px;\">+</div>","key_press":null,"block":"face","trial":"true","test_part":"iti","trial_type":"html-keyboard-response","trial_index":84,"time_elapsed":468809,"internal_node_id":"0.0-1.0-0.0-2.0-0.19","subject":"lr3mz0q1ezzvemg"},{"rt":null,"stimulus":"audio/3_Old_Blacktop.mp3","key_press":null,"block":"face","trial":"true","task":"cue","cue_song":"audio/3_Old_Blacktop.mp3","cue_emotion":"sad","trial_type":"audio-keyboard-response","trial_index":85,"time_elapsed":469813,"internal_node_id":"0.0-1.0-0.0-2.0-1.19","subject":"lr3mz0q1ezzvemg"},{"rt":null,"stimulus":"<div style=\"font-size:60px;\">+</div>","key_press":null,"block":"face","trial":"true","test_part":"isi","trial_type":"html-keyboard-response","trial_index":86,"time_elapsed":470017,"internal_node_id":"0.0-1.0-0.0-2.0-2.19","subject":"lr3mz0q1ezzvemg"},{"rt":740.1150000077905,"stimulus":"img/BF34ANS.JPG","key_press":39,"block":"face","trial":"true","task":"target","target_stimulus":"img/BF34ANS.JPG","target_emotion":"angry","condition":"incongruent","trial_type":"image-keyboard-response","trial_index":87,"time_elapsed":470758,"internal_node_id":"0.0-1.0-0.0-2.0-3.19","subject":"lr3mz0q1ezzvemg"},{"rt":null,"stimulus":"<div style=\"font-size:60px;\">+</div>","key_press":null,"block":"face","trial":"true","test_part":"iti","trial_type":"html-keyboard-response","trial_index":88,"time_elapsed":472261,"internal_node_id":"0.0-1.0-0.0-2.0-0.20","subject":"lr3mz0q1ezzvemg"},{"rt":null,"stimulus":"audio/12_Skinny_Love.mp3","key_press":null,"block":"face","trial":"true","task":"cue","cue_song":"audio/12_Skinny_Love.mp3","cue_emotion":"sad","trial_type":"audio-keyboard-response","trial_index":89,"time_elapsed":473263,"internal_node_id":"0.0-1.0-0.0-2.0-1.20","subject":"lr3mz0q1ezzvemg"},{"rt":null,"stimulus":"<div style=\"font-size:60px;\">+</div>","key_press":null,"block":"face","trial":"true","test_part":"isi","trial_type":"html-keyboard-response","trial_index":90,"time_elapsed":473468,"internal_node_id":"0.0-1.0-0.0-2.0-2.20","subject":"lr3mz0q1ezzvemg"},{"rt":1508.50999999966,"stimulus":"img/BM08SAS.JPG","key_press":39,"block":"face","trial":"true","task":"target","target_stimulus":"img/BM08SAS.JPG","target_emotion":"sad","condition":"congruent","trial_type":"image-keyboard-response","trial_index":91,"time_elapsed":474977,"internal_node_id":"0.0-1.0-0.0-2.0-3.20","subject":"lr3mz0q1ezzvemg"},{"rt":null,"stimulus":"<div style=\"font-size:60px;\">+</div>","key_press":null,"block":"face","trial":"true","test_part":"iti","trial_type":"html-keyboard-response","trial_index":92,"time_elapsed":476483,"internal_node_id":"0.0-1.0-0.0-2.0-0.21","subject":"lr3mz0q1ezzvemg"},{"rt":null,"stimulus":"audio/5_Valerie.mp3","key_press":null,"block":"face","trial":"true","task":"cue","cue_song":"audio/5_Valerie.mp3","cue_emotion":"happy","trial_type":"audio-keyboard-response","trial_index":93,"time_elapsed":477489,"internal_node_id":"0.0-1.0-0.0-2.0-1.21","subject":"lr3mz0q1ezzvemg"},{"rt":null,"stimulus":"<div style=\"font-size:60px;\">+</div>","key_press":null,"block":"face","trial":"true","test_part":"isi","trial_type":"html-keyboard-response","trial_index":94,"time_elapsed":477692,"internal_node_id":"0.0-1.0-0.0-2.0-2.21","subject":"lr3mz0q1ezzvemg"},{"rt":null,"stimulus":"img/BM08ANS.JPG","key_press":null,"block":"face","trial":"true","task":"target","target_stimulus":"img/BM08ANS.JPG","target_emotion":"angry","condition":"incongruent","trial_type":"image-keyboard-response","trial_index":95,"time_elapsed":480198,"internal_node_id":"0.0-1.0-0.0-2.0-3.21","subject":"lr3mz0q1ezzvemg"},{"rt":null,"stimulus":"<div style=\"font-size:60px;\">+</div>","key_press":null,"block":"face","trial":"true","test_part":"iti","trial_type":"html-keyboard-response","trial_index":96,"time_elapsed":481699,"internal_node_id":"0.0-1.0-0.0-2.0-0.22","subject":"lr3mz0q1ezzvemg"},{"rt":null,"stimulus":"audio/12_Skinny_Love.mp3","key_press":null,"block":"face","trial":"true","task":"cue","cue_song":"audio/12_Skinny_Love.mp3","cue_emotion":"sad","trial_type":"audio-keyboard-response","trial_index":97,"time_elapsed":482703,"internal_node_id":"0.0-1.0-0.0-2.0-1.22","subject":"lr3mz0q1ezzvemg"},{"rt":null,"stimulus":"<div style=\"font-size:60px;\">+</div>","key_press":null,"block":"face","trial":"true","test_part":"isi","trial_type":"html-keyboard-response","trial_index":98,"time_elapsed":482907,"internal_node_id":"0.0-1.0-0.0-2.0-2.22","subject":"lr3mz0q1ezzvemg"},{"rt":1167.2799999942072,"stimulus":"img/BF34ANS.JPG","key_press":39,"block":"face","trial":"true","task":"target","target_stimulus":"img/BF34ANS.JPG","target_emotion":"angry","condition":"incongruent","trial_type":"image-keyboard-response","trial_index":99,"time_elapsed":484076,"internal_node_id":"0.0-1.0-0.0-2.0-3.22","subject":"lr3mz0q1ezzvemg"},{"rt":null,"stimulus":"<div style=\"font-size:60px;\">+</div>","key_press":null,"block":"face","trial":"true","test_part":"iti","trial_type":"html-keyboard-response","trial_index":100,"time_elapsed":485580,"internal_node_id":"0.0-1.0-0.0-2.0-0.23","subject":"lr3mz0q1ezzvemg"},{"rt":null,"stimulus":"audio/26_Make_Light.mp3","key_press":null,"block":"face","trial":"true","task":"cue","cue_song":"audio/26_Make_Light.mp3","cue_emotion":"happy","trial_type":"audio-keyboard-response","trial_index":101,"time_elapsed":486582,"internal_node_id":"0.0-1.0-0.0-2.0-1.23","subject":"lr3mz0q1ezzvemg"},{"rt":null,"stimulus":"<div style=\"font-size:60px;\">+</div>","key_press":null,"block":"face","trial":"true","test_part":"isi","trial_type":"html-keyboard-response","trial_index":102,"time_elapsed":486785,"internal_node_id":"0.0-1.0-0.0-2.0-2.23","subject":"lr3mz0q1ezzvemg"},{"rt":865.7699999894248,"stimulus":"img/BF34ANS.JPG","key_press":39,"block":"face","trial":"true","task":"target","target_stimulus":"img/BF34ANS.JPG","target_emotion":"angry","condition":"incongruent","trial_type":"image-keyboard-response","trial_index":103,"time_elapsed":487652,"internal_node_id":"0.0-1.0-0.0-2.0-3.23","subject":"lr3mz0q1ezzvemg"},{"rt":null,"stimulus":"<div style=\"font-size:60px;\">+</div>","key_press":null,"block":"face","trial":"true","test_part":"iti","trial_type":"html-keyboard-response","trial_index":104,"time_elapsed":489158,"internal_node_id":"0.0-1.0-0.0-2.0-0.24","subject":"lr3mz0q1ezzvemg"},{"rt":null,"stimulus":"audio/3_Old_Blacktop.mp3","key_press":null,"block":"face","trial":"true","task":"cue","cue_song":"audio/3_Old_Blacktop.mp3","cue_emotion":"sad","trial_type":"audio-keyboard-response","trial_index":105,"time_elapsed":490164,"internal_node_id":"0.0-1.0-0.0-2.0-1.24","subject":"lr3mz0q1ezzvemg"},{"rt":null,"stimulus":"<div style=\"font-size:60px;\">+</div>","key_press":null,"block":"face","trial":"true","test_part":"isi","trial_type":"html-keyboard-response","trial_index":106,"time_elapsed":490371,"internal_node_id":"0.0-1.0-0.0-2.0-2.24","subject":"lr3mz0q1ezzvemg"},{"rt":627.5100000057137,"stimulus":"img/BF34HAS.JPG","key_press":39,"block":"face","trial":"true","task":"target","target_stimulus":"img/BF34HAS.JPG","target_emotion":"happy","condition":"incongruent","trial_type":"image-keyboard-response","trial_index":107,"time_elapsed":491000,"internal_node_id":"0.0-1.0-0.0-2.0-3.24","subject":"lr3mz0q1ezzvemg"},{"rt":null,"stimulus":"<div style=\"font-size:60px;\">+</div>","key_press":null,"block":"face","trial":"true","test_part":"iti","trial_type":"html-keyboard-response","trial_index":108,"time_elapsed":492500,"internal_node_id":"0.0-1.0-0.0-2.0-0.25","subject":"lr3mz0q1ezzvemg"},{"rt":null,"stimulus":"audio/3_Old_Blacktop.mp3","key_press":null,"block":"face","trial":"true","task":"cue","cue_song":"audio/3_Old_Blacktop.mp3","cue_emotion":"sad","trial_type":"audio-keyboard-response","trial_index":109,"time_elapsed":493507,"internal_node_id":"0.0-1.0-0.0-2.0-1.25","subject":"lr3mz0q1ezzvemg"},{"rt":null,"stimulus":"<div style=\"font-size:60px;\">+</div>","key_press":null,"block":"face","trial":"true","test_part":"isi","trial_type":"html-keyboard-response","trial_index":110,"time_elapsed":493710,"internal_node_id":"0.0-1.0-0.0-2.0-2.25","subject":"lr3mz0q1ezzvemg"},{"rt":1024.250000002212,"stimulus":"img/BM08ANS.JPG","key_press":37,"block":"face","trial":"true","task":"target","target_stimulus":"img/BM08ANS.JPG","target_emotion":"angry","condition":"incongruent","trial_type":"image-keyboard-response","trial_index":111,"time_elapsed":494735,"internal_node_id":"0.0-1.0-0.0-2.0-3.25","subject":"lr3mz0q1ezzvemg"},{"rt":null,"stimulus":"<div style=\"font-size:60px;\">+</div>","key_press":null,"block":"face","trial":"true","test_part":"iti","trial_type":"html-keyboard-response","trial_index":112,"time_elapsed":496239,"internal_node_id":"0.0-1.0-0.0-2.0-0.26","subject":"lr3mz0q1ezzvemg"},{"rt":null,"stimulus":"audio/21_Skank_Down.mp3","key_press":null,"block":"face","trial":"true","task":"cue","cue_song":"audio/21_Skank_Down.mp3","cue_emotion":"happy","trial_type":"audio-keyboard-response","trial_index":113,"time_elapsed":497241,"internal_node_id":"0.0-1.0-0.0-2.0-1.26","subject":"lr3mz0q1ezzvemg"},{"rt":null,"stimulus":"<div style=\"font-size:60px;\">+</div>","key_press":null,"block":"face","trial":"true","test_part":"isi","trial_type":"html-keyboard-response","trial_index":114,"time_elapsed":497443,"internal_node_id":"0.0-1.0-0.0-2.0-2.26","subject":"lr3mz0q1ezzvemg"},{"rt":878.8849999982631,"stimulus":"img/BF34ANS.JPG","key_press":39,"block":"face","trial":"true","task":"target","target_stimulus":"img/BF34ANS.JPG","target_emotion":"angry","condition":"incongruent","trial_type":"image-keyboard-response","trial_index":115,"time_elapsed":498323,"internal_node_id":"0.0-1.0-0.0-2.0-3.26","subject":"lr3mz0q1ezzvemg"},{"rt":null,"stimulus":"<div style=\"font-size:60px;\">+</div>","key_press":null,"block":"face","trial":"true","test_part":"iti","trial_type":"html-keyboard-response","trial_index":116,"time_elapsed":499827,"internal_node_id":"0.0-1.0-0.0-2.0-0.27","subject":"lr3mz0q1ezzvemg"},{"rt":null,"stimulus":"audio/21_Skank_Down.mp3","key_press":null,"block":"face","trial":"true","task":"cue","cue_song":"audio/21_Skank_Down.mp3","cue_emotion":"happy","trial_type":"audio-keyboard-response","trial_index":117,"time_elapsed":500833,"internal_node_id":"0.0-1.0-0.0-2.0-1.27","subject":"lr3mz0q1ezzvemg"},{"rt":null,"stimulus":"<div style=\"font-size:60px;\">+</div>","key_press":null,"block":"face","trial":"true","test_part":"isi","trial_type":"html-keyboard-response","trial_index":118,"time_elapsed":501037,"internal_node_id":"0.0-1.0-0.0-2.0-2.27","subject":"lr3mz0q1ezzvemg"},{"rt":917.3100000043632,"stimulus":"img/BM08SAS.JPG","key_press":39,"block":"face","trial":"true","task":"target","target_stimulus":"img/BM08SAS.JPG","target_emotion":"sad","condition":"incongruent","trial_type":"image-keyboard-response","trial_index":119,"time_elapsed":501955,"internal_node_id":"0.0-1.0-0.0-2.0-3.27","subject":"lr3mz0q1ezzvemg"},{"rt":null,"stimulus":"<div style=\"font-size:60px;\">+</div>","key_press":null,"block":"face","trial":"true","test_part":"iti","trial_type":"html-keyboard-response","trial_index":120,"time_elapsed":503457,"internal_node_id":"0.0-1.0-0.0-2.0-0.28","subject":"lr3mz0q1ezzvemg"},{"rt":null,"stimulus":"audio/26_Make_Light.mp3","key_press":null,"block":"face","trial":"true","task":"cue","cue_song":"audio/26_Make_Light.mp3","cue_emotion":"happy","trial_type":"audio-keyboard-response","trial_index":121,"time_elapsed":504459,"internal_node_id":"0.0-1.0-0.0-2.0-1.28","subject":"lr3mz0q1ezzvemg"},{"rt":null,"stimulus":"<div style=\"font-size:60px;\">+</div>","key_press":null,"block":"face","trial":"true","test_part":"isi","trial_type":"html-keyboard-response","trial_index":122,"time_elapsed":504665,"internal_node_id":"0.0-1.0-0.0-2.0-2.28","subject":"lr3mz0q1ezzvemg"},{"rt":1126.124999995227,"stimulus":"img/BF34SAS.JPG","key_press":39,"block":"face","trial":"true","task":"target","target_stimulus":"img/BF34SAS.JPG","target_emotion":"sad","condition":"incongruent","trial_type":"image-keyboard-response","trial_index":123,"time_elapsed":505793,"internal_node_id":"0.0-1.0-0.0-2.0-3.28","subject":"lr3mz0q1ezzvemg"},{"rt":null,"stimulus":"<div style=\"font-size:60px;\">+</div>","key_press":null,"block":"face","trial":"true","test_part":"iti","trial_type":"html-keyboard-response","trial_index":124,"time_elapsed":507293,"internal_node_id":"0.0-1.0-0.0-2.0-0.29","subject":"lr3mz0q1ezzvemg"},{"rt":null,"stimulus":"audio/1_Be_Happy.mp3","key_press":null,"block":"face","trial":"true","task":"cue","cue_song":"audio/1_Be_Happy.mp3","cue_emotion":"happy","trial_type":"audio-keyboard-response","trial_index":125,"time_elapsed":508298,"internal_node_id":"0.0-1.0-0.0-2.0-1.29","subject":"lr3mz0q1ezzvemg"},{"rt":null,"stimulus":"<div style=\"font-size:60px;\">+</div>","key_press":null,"block":"face","trial":"true","test_part":"isi","trial_type":"html-keyboard-response","trial_index":126,"time_elapsed":508500,"internal_node_id":"0.0-1.0-0.0-2.0-2.29","subject":"lr3mz0q1ezzvemg"},{"rt":761.3149999961024,"stimulus":"img/BM08HAS.JPG","key_press":37,"block":"face","trial":"true","task":"target","target_stimulus":"img/BM08HAS.JPG","target_emotion":"happy","condition":"congruent","trial_type":"image-keyboard-response","trial_index":127,"time_elapsed":509262,"internal_node_id":"0.0-1.0-0.0-2.0-3.29","subject":"lr3mz0q1ezzvemg"},{"rt":null,"stimulus":"<div style=\"font-size:60px;\">+</div>","key_press":null,"block":"face","trial":"true","test_part":"iti","trial_type":"html-keyboard-response","trial_index":128,"time_elapsed":510763,"internal_node_id":"0.0-1.0-0.0-2.0-0.30","subject":"lr3mz0q1ezzvemg"},{"rt":null,"stimulus":"audio/1_Be_Happy.mp3","key_press":null,"block":"face","trial":"true","task":"cue","cue_song":"audio/1_Be_Happy.mp3","cue_emotion":"happy","trial_type":"audio-keyboard-response","trial_index":129,"time_elapsed":511770,"internal_node_id":"0.0-1.0-0.0-2.0-1.30","subject":"lr3mz0q1ezzvemg"},{"rt":null,"stimulus":"<div style=\"font-size:60px;\">+</div>","key_press":null,"block":"face","trial":"true","test_part":"isi","trial_type":"html-keyboard-response","trial_index":130,"time_elapsed":511974,"internal_node_id":"0.0-1.0-0.0-2.0-2.30","subject":"lr3mz0q1ezzvemg"},{"rt":1458.3999999886146,"stimulus":"img/BM08ANS.JPG","key_press":39,"block":"face","trial":"true","task":"target","target_stimulus":"img/BM08ANS.JPG","target_emotion":"angry","condition":"incongruent","trial_type":"image-keyboard-response","trial_index":131,"time_elapsed":513434,"internal_node_id":"0.0-1.0-0.0-2.0-3.30","subject":"lr3mz0q1ezzvemg"},{"rt":null,"stimulus":"<div style=\"font-size:60px;\">+</div>","key_press":null,"block":"face","trial":"true","test_part":"iti","trial_type":"html-keyboard-response","trial_index":132,"time_elapsed":514934,"internal_node_id":"0.0-1.0-0.0-2.0-0.31","subject":"lr3mz0q1ezzvemg"},{"rt":null,"stimulus":"audio/3_Old_Blacktop.mp3","key_press":null,"block":"face","trial":"true","task":"cue","cue_song":"audio/3_Old_Blacktop.mp3","cue_emotion":"sad","trial_type":"audio-keyboard-response","trial_index":133,"time_elapsed":515937,"internal_node_id":"0.0-1.0-0.0-2.0-1.31","subject":"lr3mz0q1ezzvemg"},{"rt":null,"stimulus":"<div style=\"font-size:60px;\">+</div>","key_press":null,"block":"face","trial":"true","test_part":"isi","trial_type":"html-keyboard-response","trial_index":134,"time_elapsed":516139,"internal_node_id":"0.0-1.0-0.0-2.0-2.31","subject":"lr3mz0q1ezzvemg"},{"rt":862.9800000053365,"stimulus":"img/BM08HAS.JPG","key_press":39,"block":"face","trial":"true","task":"target","target_stimulus":"img/BM08HAS.JPG","target_emotion":"happy","condition":"incongruent","trial_type":"image-keyboard-response","trial_index":135,"time_elapsed":517003,"internal_node_id":"0.0-1.0-0.0-2.0-3.31","subject":"lr3mz0q1ezzvemg"},{"rt":null,"stimulus":"<div style=\"font-size:60px;\">+</div>","key_press":null,"block":"face","trial":"true","test_part":"iti","trial_type":"html-keyboard-response","trial_index":136,"time_elapsed":518509,"internal_node_id":"0.0-1.0-0.0-2.0-0.32","subject":"lr3mz0q1ezzvemg"},{"rt":null,"stimulus":"audio/21_Skank_Down.mp3","key_press":null,"block":"face","trial":"true","task":"cue","cue_song":"audio/21_Skank_Down.mp3","cue_emotion":"happy","trial_type":"audio-keyboard-response","trial_index":137,"time_elapsed":519515,"internal_node_id":"0.0-1.0-0.0-2.0-1.32","subject":"lr3mz0q1ezzvemg"},{"rt":null,"stimulus":"<div style=\"font-size:60px;\">+</div>","key_press":null,"block":"face","trial":"true","test_part":"isi","trial_type":"html-keyboard-response","trial_index":138,"time_elapsed":519720,"internal_node_id":"0.0-1.0-0.0-2.0-2.32","subject":"lr3mz0q1ezzvemg"},{"rt":1403.9300000004005,"stimulus":"img/BF34SAS.JPG","key_press":39,"block":"face","trial":"true","task":"target","target_stimulus":"img/BF34SAS.JPG","target_emotion":"sad","condition":"incongruent","trial_type":"image-keyboard-response","trial_index":139,"time_elapsed":521125,"internal_node_id":"0.0-1.0-0.0-2.0-3.32","subject":"lr3mz0q1ezzvemg"},{"rt":null,"stimulus":"<div style=\"font-size:60px;\">+</div>","key_press":null,"block":"face","trial":"true","test_part":"iti","trial_type":"html-keyboard-response","trial_index":140,"time_elapsed":522626,"internal_node_id":"0.0-1.0-0.0-2.0-0.33","subject":"lr3mz0q1ezzvemg"},{"rt":null,"stimulus":"audio/21_Skank_Down.mp3","key_press":null,"block":"face","trial":"true","task":"cue","cue_song":"audio/21_Skank_Down.mp3","cue_emotion":"happy","trial_type":"audio-keyboard-response","trial_index":141,"time_elapsed":523631,"internal_node_id":"0.0-1.0-0.0-2.0-1.33","subject":"lr3mz0q1ezzvemg"},{"rt":null,"stimulus":"<div style=\"font-size:60px;\">+</div>","key_press":null,"block":"face","trial":"true","test_part":"isi","trial_type":"html-keyboard-response","trial_index":142,"time_elapsed":523834,"internal_node_id":"0.0-1.0-0.0-2.0-2.33","subject":"lr3mz0q1ezzvemg"},{"rt":933.0349999945611,"stimulus":"img/BM08HAS.JPG","key_press":39,"block":"face","trial":"true","task":"target","target_stimulus":"img/BM08HAS.JPG","target_emotion":"happy","condition":"congruent","trial_type":"image-keyboard-response","trial_index":143,"time_elapsed":524768,"internal_node_id":"0.0-1.0-0.0-2.0-3.33","subject":"lr3mz0q1ezzvemg"},{"rt":null,"stimulus":"<div style=\"font-size:60px;\">+</div>","key_press":null,"block":"face","trial":"true","test_part":"iti","trial_type":"html-keyboard-response","trial_index":144,"time_elapsed":526272,"internal_node_id":"0.0-1.0-0.0-2.0-0.34","subject":"lr3mz0q1ezzvemg"},{"rt":null,"stimulus":"audio/8_Fire_And_Rain__(LP_Version).mp3","key_press":null,"block":"face","trial":"true","task":"cue","cue_song":"audio/8_Fire_And_Rain__(LP_Version).mp3","cue_emotion":"sad","trial_type":"audio-keyboard-response","trial_index":145,"time_elapsed":527276,"internal_node_id":"0.0-1.0-0.0-2.0-1.34","subject":"lr3mz0q1ezzvemg"},{"rt":null,"stimulus":"<div style=\"font-size:60px;\">+</div>","key_press":null,"block":"face","trial":"true","test_part":"isi","trial_type":"html-keyboard-response","trial_index":146,"time_elapsed":527478,"internal_node_id":"0.0-1.0-0.0-2.0-2.34","subject":"lr3mz0q1ezzvemg"},{"rt":933.694999999716,"stimulus":"img/BM08ANS.JPG","key_press":39,"block":"face","trial":"true","task":"target","target_stimulus":"img/BM08ANS.JPG","target_emotion":"angry","condition":"incongruent","trial_type":"image-keyboard-response","trial_index":147,"time_elapsed":528413,"internal_node_id":"0.0-1.0-0.0-2.0-3.34","subject":"lr3mz0q1ezzvemg"},{"rt":null,"stimulus":"<div style=\"font-size:60px;\">+</div>","key_press":null,"block":"face","trial":"true","test_part":"iti","trial_type":"html-keyboard-response","trial_index":148,"time_elapsed":529915,"internal_node_id":"0.0-1.0-0.0-2.0-0.35","subject":"lr3mz0q1ezzvemg"},{"rt":null,"stimulus":"audio/26_Make_Light.mp3","key_press":null,"block":"face","trial":"true","task":"cue","cue_song":"audio/26_Make_Light.mp3","cue_emotion":"happy","trial_type":"audio-keyboard-response","trial_index":149,"time_elapsed":530920,"internal_node_id":"0.0-1.0-0.0-2.0-1.35","subject":"lr3mz0q1ezzvemg"},{"rt":null,"stimulus":"<div style=\"font-size:60px;\">+</div>","key_press":null,"block":"face","trial":"true","test_part":"isi","trial_type":"html-keyboard-response","trial_index":150,"time_elapsed":531122,"internal_node_id":"0.0-1.0-0.0-2.0-2.35","subject":"lr3mz0q1ezzvemg"},{"rt":686.1849999986589,"stimulus":"img/BM08SAS.JPG","key_press":39,"block":"face","trial":"true","task":"target","target_stimulus":"img/BM08SAS.JPG","target_emotion":"sad","condition":"incongruent","trial_type":"image-keyboard-response","trial_index":151,"time_elapsed":531810,"internal_node_id":"0.0-1.0-0.0-2.0-3.35","subject":"lr3mz0q1ezzvemg"},{"rt":null,"stimulus":"<div style=\"font-size:60px;\">+</div>","key_press":null,"block":"face","trial":"true","test_part":"iti","trial_type":"html-keyboard-response","trial_index":152,"time_elapsed":533317,"internal_node_id":"0.0-1.0-0.0-2.0-0.36","subject":"lr3mz0q1ezzvemg"},{"rt":null,"stimulus":"audio/12_Skinny_Love.mp3","key_press":null,"block":"face","trial":"true","task":"cue","cue_song":"audio/12_Skinny_Love.mp3","cue_emotion":"sad","trial_type":"audio-keyboard-response","trial_index":153,"time_elapsed":534323,"internal_node_id":"0.0-1.0-0.0-2.0-1.36","subject":"lr3mz0q1ezzvemg"},{"rt":null,"stimulus":"<div style=\"font-size:60px;\">+</div>","key_press":null,"block":"face","trial":"true","test_part":"isi","trial_type":"html-keyboard-response","trial_index":154,"time_elapsed":534528,"internal_node_id":"0.0-1.0-0.0-2.0-2.36","subject":"lr3mz0q1ezzvemg"},{"rt":725.7099999987986,"stimulus":"img/BM08HAS.JPG","key_press":39,"block":"face","trial":"true","task":"target","target_stimulus":"img/BM08HAS.JPG","target_emotion":"happy","condition":"incongruent","trial_type":"image-keyboard-response","trial_index":155,"time_elapsed":535255,"internal_node_id":"0.0-1.0-0.0-2.0-3.36","subject":"lr3mz0q1ezzvemg"},{"rt":null,"stimulus":"<div style=\"font-size:60px;\">+</div>","key_press":null,"block":"face","trial":"true","test_part":"iti","trial_type":"html-keyboard-response","trial_index":156,"time_elapsed":536759,"internal_node_id":"0.0-1.0-0.0-2.0-0.37","subject":"lr3mz0q1ezzvemg"},{"rt":null,"stimulus":"audio/26_Make_Light.mp3","key_press":null,"block":"face","trial":"true","task":"cue","cue_song":"audio/26_Make_Light.mp3","cue_emotion":"happy","trial_type":"audio-keyboard-response","trial_index":157,"time_elapsed":537762,"internal_node_id":"0.0-1.0-0.0-2.0-1.37","subject":"lr3mz0q1ezzvemg"},{"rt":null,"stimulus":"<div style=\"font-size:60px;\">+</div>","key_press":null,"block":"face","trial":"true","test_part":"isi","trial_type":"html-keyboard-response","trial_index":158,"time_elapsed":537966,"internal_node_id":"0.0-1.0-0.0-2.0-2.37","subject":"lr3mz0q1ezzvemg"},{"rt":747.9500000044936,"stimulus":"img/BM08HAS.JPG","key_press":37,"block":"face","trial":"true","task":"target","target_stimulus":"img/BM08HAS.JPG","target_emotion":"happy","condition":"congruent","trial_type":"image-keyboard-response","trial_index":159,"time_elapsed":538715,"internal_node_id":"0.0-1.0-0.0-2.0-3.37","subject":"lr3mz0q1ezzvemg"},{"rt":null,"stimulus":"<div style=\"font-size:60px;\">+</div>","key_press":null,"block":"face","trial":"true","test_part":"iti","trial_type":"html-keyboard-response","trial_index":160,"time_elapsed":540216,"internal_node_id":"0.0-1.0-0.0-2.0-0.38","subject":"lr3mz0q1ezzvemg"},{"rt":null,"stimulus":"audio/2_Loves_Requiem.mp3","key_press":null,"block":"face","trial":"true","task":"cue","cue_song":"audio/2_Loves_Requiem.mp3","cue_emotion":"sad","trial_type":"audio-keyboard-response","trial_index":161,"time_elapsed":541218,"internal_node_id":"0.0-1.0-0.0-2.0-1.38","subject":"lr3mz0q1ezzvemg"},{"rt":null,"stimulus":"<div style=\"font-size:60px;\">+</div>","key_press":null,"block":"face","trial":"true","test_part":"isi","trial_type":"html-keyboard-response","trial_index":162,"time_elapsed":541424,"internal_node_id":"0.0-1.0-0.0-2.0-2.38","subject":"lr3mz0q1ezzvemg"},{"rt":1088.5550000093644,"stimulus":"img/BF34ANS.JPG","key_press":39,"block":"face","trial":"true","task":"target","target_stimulus":"img/BF34ANS.JPG","target_emotion":"angry","condition":"incongruent","trial_type":"image-keyboard-response","trial_index":163,"time_elapsed":542514,"internal_node_id":"0.0-1.0-0.0-2.0-3.38","subject":"lr3mz0q1ezzvemg"},{"rt":null,"stimulus":"<div style=\"font-size:60px;\">+</div>","key_press":null,"block":"face","trial":"true","test_part":"iti","trial_type":"html-keyboard-response","trial_index":164,"time_elapsed":544015,"internal_node_id":"0.0-1.0-0.0-2.0-0.39","subject":"lr3mz0q1ezzvemg"},{"rt":null,"stimulus":"audio/1_Be_Happy.mp3","key_press":null,"block":"face","trial":"true","task":"cue","cue_song":"audio/1_Be_Happy.mp3","cue_emotion":"happy","trial_type":"audio-keyboard-response","trial_index":165,"time_elapsed":545016,"internal_node_id":"0.0-1.0-0.0-2.0-1.39","subject":"lr3mz0q1ezzvemg"},{"rt":null,"stimulus":"<div style=\"font-size:60px;\">+</div>","key_press":null,"block":"face","trial":"true","test_part":"isi","trial_type":"html-keyboard-response","trial_index":166,"time_elapsed":545216,"internal_node_id":"0.0-1.0-0.0-2.0-2.39","subject":"lr3mz0q1ezzvemg"},{"rt":990.1800000079675,"stimulus":"img/BM08SAS.JPG","key_press":37,"block":"face","trial":"true","task":"target","target_stimulus":"img/BM08SAS.JPG","target_emotion":"sad","condition":"incongruent","trial_type":"image-keyboard-response","trial_index":167,"time_elapsed":546208,"internal_node_id":"0.0-1.0-0.0-2.0-3.39","subject":"lr3mz0q1ezzvemg"},{"rt":null,"stimulus":"<div style=\"font-size:60px;\">+</div>","key_press":null,"block":"face","trial":"true","test_part":"iti","trial_type":"html-keyboard-response","trial_index":168,"time_elapsed":547713,"internal_node_id":"0.0-1.0-0.0-2.0-0.40","subject":"lr3mz0q1ezzvemg"},{"rt":null,"stimulus":"audio/12_Skinny_Love.mp3","key_press":null,"block":"face","trial":"true","task":"cue","cue_song":"audio/12_Skinny_Love.mp3","cue_emotion":"sad","trial_type":"audio-keyboard-response","trial_index":169,"time_elapsed":548717,"internal_node_id":"0.0-1.0-0.0-2.0-1.40","subject":"lr3mz0q1ezzvemg"},{"rt":null,"stimulus":"<div style=\"font-size:60px;\">+</div>","key_press":null,"block":"face","trial":"true","test_part":"isi","trial_type":"html-keyboard-response","trial_index":170,"time_elapsed":548919,"internal_node_id":"0.0-1.0-0.0-2.0-2.40","subject":"lr3mz0q1ezzvemg"},{"rt":1822.4349999945844,"stimulus":"img/BF34HAS.JPG","key_press":39,"block":"face","trial":"true","task":"target","target_stimulus":"img/BF34HAS.JPG","target_emotion":"happy","condition":"incongruent","trial_type":"image-keyboard-response","trial_index":171,"time_elapsed":550743,"internal_node_id":"0.0-1.0-0.0-2.0-3.40","subject":"lr3mz0q1ezzvemg"},{"rt":null,"stimulus":"<div style=\"font-size:60px;\">+</div>","key_press":null,"block":"face","trial":"true","test_part":"iti","trial_type":"html-keyboard-response","trial_index":172,"time_elapsed":552248,"internal_node_id":"0.0-1.0-0.0-2.0-0.41","subject":"lr3mz0q1ezzvemg"},{"rt":null,"stimulus":"audio/2_Loves_Requiem.mp3","key_press":null,"block":"face","trial":"true","task":"cue","cue_song":"audio/2_Loves_Requiem.mp3","cue_emotion":"sad","trial_type":"audio-keyboard-response","trial_index":173,"time_elapsed":553250,"internal_node_id":"0.0-1.0-0.0-2.0-1.41","subject":"lr3mz0q1ezzvemg"},{"rt":null,"stimulus":"<div style=\"font-size:60px;\">+</div>","key_press":null,"block":"face","trial":"true","test_part":"isi","trial_type":"html-keyboard-response","trial_index":174,"time_elapsed":553453,"internal_node_id":"0.0-1.0-0.0-2.0-2.41","subject":"lr3mz0q1ezzvemg"},{"rt":1156.5799999953015,"stimulus":"img/BM08ANS.JPG","key_press":39,"block":"face","trial":"true","task":"target","target_stimulus":"img/BM08ANS.JPG","target_emotion":"angry","condition":"incongruent","trial_type":"image-keyboard-response","trial_index":175,"time_elapsed":554610,"internal_node_id":"0.0-1.0-0.0-2.0-3.41","subject":"lr3mz0q1ezzvemg"},{"rt":null,"stimulus":"<div style=\"font-size:60px;\">+</div>","key_press":null,"block":"face","trial":"true","test_part":"iti","trial_type":"html-keyboard-response","trial_index":176,"time_elapsed":556116,"internal_node_id":"0.0-1.0-0.0-2.0-0.42","subject":"lr3mz0q1ezzvemg"},{"rt":null,"stimulus":"audio/8_Fire_And_Rain__(LP_Version).mp3","key_press":null,"block":"face","trial":"true","task":"cue","cue_song":"audio/8_Fire_And_Rain__(LP_Version).mp3","cue_emotion":"sad","trial_type":"audio-keyboard-response","trial_index":177,"time_elapsed":557122,"internal_node_id":"0.0-1.0-0.0-2.0-1.42","subject":"lr3mz0q1ezzvemg"},{"rt":null,"stimulus":"<div style=\"font-size:60px;\">+</div>","key_press":null,"block":"face","trial":"true","test_part":"isi","trial_type":"html-keyboard-response","trial_index":178,"time_elapsed":557327,"internal_node_id":"0.0-1.0-0.0-2.0-2.42","subject":"lr3mz0q1ezzvemg"},{"rt":1209.0299999981653,"stimulus":"img/BF34ANS.JPG","key_press":39,"block":"face","trial":"true","task":"target","target_stimulus":"img/BF34ANS.JPG","target_emotion":"angry","condition":"incongruent","trial_type":"image-keyboard-response","trial_index":179,"time_elapsed":558537,"internal_node_id":"0.0-1.0-0.0-2.0-3.42","subject":"lr3mz0q1ezzvemg"},{"rt":null,"stimulus":"<div style=\"font-size:60px;\">+</div>","key_press":null,"block":"face","trial":"true","test_part":"iti","trial_type":"html-keyboard-response","trial_index":180,"time_elapsed":560043,"internal_node_id":"0.0-1.0-0.0-2.0-0.43","subject":"lr3mz0q1ezzvemg"},{"rt":null,"stimulus":"audio/2_Loves_Requiem.mp3","key_press":null,"block":"face","trial":"true","task":"cue","cue_song":"audio/2_Loves_Requiem.mp3","cue_emotion":"sad","trial_type":"audio-keyboard-response","trial_index":181,"time_elapsed":561049,"internal_node_id":"0.0-1.0-0.0-2.0-1.43","subject":"lr3mz0q1ezzvemg"},{"rt":null,"stimulus":"<div style=\"font-size:60px;\">+</div>","key_press":null,"block":"face","trial":"true","test_part":"isi","trial_type":"html-keyboard-response","trial_index":182,"time_elapsed":561251,"internal_node_id":"0.0-1.0-0.0-2.0-2.43","subject":"lr3mz0q1ezzvemg"},{"rt":663.0399999994552,"stimulus":"img/BM08HAS.JPG","key_press":39,"block":"face","trial":"true","task":"target","target_stimulus":"img/BM08HAS.JPG","target_emotion":"happy","condition":"incongruent","trial_type":"image-keyboard-response","trial_index":183,"time_elapsed":561915,"internal_node_id":"0.0-1.0-0.0-2.0-3.43","subject":"lr3mz0q1ezzvemg"},{"rt":null,"stimulus":"<div style=\"font-size:60px;\">+</div>","key_press":null,"block":"face","trial":"true","test_part":"iti","trial_type":"html-keyboard-response","trial_index":184,"time_elapsed":563420,"internal_node_id":"0.0-1.0-0.0-2.0-0.44","subject":"lr3mz0q1ezzvemg"},{"rt":null,"stimulus":"audio/8_Fire_And_Rain__(LP_Version).mp3","key_press":null,"block":"face","trial":"true","task":"cue","cue_song":"audio/8_Fire_And_Rain__(LP_Version).mp3","cue_emotion":"sad","trial_type":"audio-keyboard-response","trial_index":185,"time_elapsed":564425,"internal_node_id":"0.0-1.0-0.0-2.0-1.44","subject":"lr3mz0q1ezzvemg"},{"rt":null,"stimulus":"<div style=\"font-size:60px;\">+</div>","key_press":null,"block":"face","trial":"true","test_part":"isi","trial_type":"html-keyboard-response","trial_index":186,"time_elapsed":564627,"internal_node_id":"0.0-1.0-0.0-2.0-2.44","subject":"lr3mz0q1ezzvemg"},{"rt":607.7899999945657,"stimulus":"img/BM08SAS.JPG","key_press":37,"block":"face","trial":"true","task":"target","target_stimulus":"img/BM08SAS.JPG","target_emotion":"sad","condition":"congruent","trial_type":"image-keyboard-response","trial_index":187,"time_elapsed":565236,"internal_node_id":"0.0-1.0-0.0-2.0-3.44","subject":"lr3mz0q1ezzvemg"},{"rt":null,"stimulus":"<div style=\"font-size:60px;\">+</div>","key_press":null,"block":"face","trial":"true","test_part":"iti","trial_type":"html-keyboard-response","trial_index":188,"time_elapsed":566739,"internal_node_id":"0.0-1.0-0.0-2.0-0.45","subject":"lr3mz0q1ezzvemg"},{"rt":null,"stimulus":"audio/2_Loves_Requiem.mp3","key_press":null,"block":"face","trial":"true","task":"cue","cue_song":"audio/2_Loves_Requiem.mp3","cue_emotion":"sad","trial_type":"audio-keyboard-response","trial_index":189,"time_elapsed":567745,"internal_node_id":"0.0-1.0-0.0-2.0-1.45","subject":"lr3mz0q1ezzvemg"},{"rt":null,"stimulus":"<div style=\"font-size:60px;\">+</div>","key_press":null,"block":"face","trial":"true","test_part":"isi","trial_type":"html-keyboard-response","trial_index":190,"time_elapsed":567949,"internal_node_id":"0.0-1.0-0.0-2.0-2.45","subject":"lr3mz0q1ezzvemg"},{"rt":673.3300000050804,"stimulus":"img/BF34SAS.JPG","key_press":37,"block":"face","trial":"true","task":"target","target_stimulus":"img/BF34SAS.JPG","target_emotion":"sad","condition":"congruent","trial_type":"image-keyboard-response","trial_index":191,"time_elapsed":568625,"internal_node_id":"0.0-1.0-0.0-2.0-3.45","subject":"lr3mz0q1ezzvemg"},{"rt":null,"stimulus":"<div style=\"font-size:60px;\">+</div>","key_press":null,"block":"face","trial":"true","test_part":"iti","trial_type":"html-keyboard-response","trial_index":192,"time_elapsed":570125,"internal_node_id":"0.0-1.0-0.0-2.0-0.46","subject":"lr3mz0q1ezzvemg"},{"rt":null,"stimulus":"audio/5_Valerie.mp3","key_press":null,"block":"face","trial":"true","task":"cue","cue_song":"audio/5_Valerie.mp3","cue_emotion":"happy","trial_type":"audio-keyboard-response","trial_index":193,"time_elapsed":571128,"internal_node_id":"0.0-1.0-0.0-2.0-1.46","subject":"lr3mz0q1ezzvemg"},{"rt":null,"stimulus":"<div style=\"font-size:60px;\">+</div>","key_press":null,"block":"face","trial":"true","test_part":"isi","trial_type":"html-keyboard-response","trial_index":194,"time_elapsed":571333,"internal_node_id":"0.0-1.0-0.0-2.0-2.46","subject":"lr3mz0q1ezzvemg"},{"rt":478.33000001264736,"stimulus":"img/BM08HAS.JPG","key_press":37,"block":"face","trial":"true","task":"target","target_stimulus":"img/BM08HAS.JPG","target_emotion":"happy","condition":"congruent","trial_type":"image-keyboard-response","trial_index":195,"time_elapsed":571813,"internal_node_id":"0.0-1.0-0.0-2.0-3.46","subject":"lr3mz0q1ezzvemg"},{"rt":null,"stimulus":"<div style=\"font-size:60px;\">+</div>","key_press":null,"block":"face","trial":"true","test_part":"iti","trial_type":"html-keyboard-response","trial_index":196,"time_elapsed":573319,"internal_node_id":"0.0-1.0-0.0-2.0-0.47","subject":"lr3mz0q1ezzvemg"},{"rt":null,"stimulus":"audio/8_Fire_And_Rain__(LP_Version).mp3","key_press":null,"block":"face","trial":"true","task":"cue","cue_song":"audio/8_Fire_And_Rain__(LP_Version).mp3","cue_emotion":"sad","trial_type":"audio-keyboard-response","trial_index":197,"time_elapsed":574325,"internal_node_id":"0.0-1.0-0.0-2.0-1.47","subject":"lr3mz0q1ezzvemg"},{"rt":null,"stimulus":"<div style=\"font-size:60px;\">+</div>","key_press":null,"block":"face","trial":"true","test_part":"isi","trial_type":"html-keyboard-response","trial_index":198,"time_elapsed":574526,"internal_node_id":"0.0-1.0-0.0-2.0-2.47","subject":"lr3mz0q1ezzvemg"},{"rt":795.4549999994924,"stimulus":"img/BF34SAS.JPG","key_press":37,"block":"face","trial":"true","task":"target","target_stimulus":"img/BF34SAS.JPG","target_emotion":"sad","condition":"congruent","trial_type":"image-keyboard-response","trial_index":199,"time_elapsed":575323,"internal_node_id":"0.0-1.0-0.0-2.0-3.47","subject":"lr3mz0q1ezzvemg"},{"rt":4792.939999999362,"stimulus":"<p>This part of the experiment is now over </p><br><strong>Press the spacebar to move onto the next part</strong>","key_press":32,"block":"face","task":"end_block","trial_type":"html-keyboard-response","trial_index":200,"time_elapsed":580116,"internal_node_id":"0.0-1.0-0.0-3.0","subject":"lr3mz0q1ezzvemg"},{"rt":29623.80000000121,"stimulus":"<p>In this part of the experiment you will hear a short musical clip and then shortly be shown a word</p><br><br><p><strong>If the emotion in the song and the word match the press the left arrow key (&larr;)</p><br><p>If the emotion in the song and the word do not match then press the right arrow key (&rarr;)</strong><p>Please be as quick and accurate as possible</p><p>Press the space bar to begin</p>","key_press":32,"block":"word","task":"instruction","trial_type":"html-keyboard-response","trial_index":201,"time_elapsed":609741,"internal_node_id":"0.0-1.0-1.0-0.0","subject":"lr3mz0q1ezzvemg"},{"rt":null,"stimulus":"<div style=\"font-size:60px;\">+</div>","key_press":null,"block":"word","trial":"false","test_part":"iti","trial_type":"html-keyboard-response","trial_index":202,"time_elapsed":611247,"internal_node_id":"0.0-1.0-1.0-1.0-0.0","subject":"lr3mz0q1ezzvemg"},{"rt":null,"stimulus":"audio/15_Bunkertor_7.mp3","key_press":null,"block":"word","trial":"false","trial_type":"audio-keyboard-response","trial_index":203,"time_elapsed":612253,"internal_node_id":"0.0-1.0-1.0-1.0-1.0","subject":"lr3mz0q1ezzvemg"},{"rt":null,"stimulus":"<div style=\"font-size:60px;\">+</div>","key_press":null,"block":"word","trial":"false","test_part":"isi","trial_type":"html-keyboard-response","trial_index":204,"time_elapsed":612456,"internal_node_id":"0.0-1.0-1.0-1.0-2.0","subject":"lr3mz0q1ezzvemg"},{"rt":785.3949999989709,"stimulus":"<p style=\"font-size: 48px; font-family: monospace;\">ANGRY</p>","key_press":37,"block":"word","trial":"false","task":"face_practice_target","trial_type":"html-keyboard-response","trial_index":205,"time_elapsed":613244,"internal_node_id":"0.0-1.0-1.0-1.0-3.0","subject":"lr3mz0q1ezzvemg","correct":true},{"rt":2239.624999987427,"stimulus":"<p>Correct! The emotions do match!</p><br> Press the spacebar to continue to the experimental trials","key_press":32,"block":"word","trial":"false","trial_type":"html-keyboard-response","trial_index":206,"time_elapsed":615485,"internal_node_id":"0.0-1.0-1.0-1.0-4.0","subject":"lr3mz0q1ezzvemg"},{"rt":1610.4950000008103,"stimulus":"The practice trial is now complete. Press the spacebar to begin the experimental trials","key_press":32,"block":"word","trial":"false","trial_type":"html-keyboard-response","trial_index":207,"time_elapsed":617096,"internal_node_id":"0.0-1.0-1.0-1.0-5.0","subject":"lr3mz0q1ezzvemg"},{"rt":null,"stimulus":"<div style=\"font-size:60px;\">+</div>","key_press":null,"block":"word","trial":"true","test_part":"iti","trial_type":"html-keyboard-response","trial_index":208,"time_elapsed":618600,"internal_node_id":"0.0-1.0-1.0-2.0-0.0","subject":"lr3mz0q1ezzvemg"},{"rt":null,"stimulus":"audio/5_Valerie.mp3","key_press":null,"block":"word","trial":"true","task":"cue","cue_song":"audio/5_Valerie.mp3","cue_emotion":"happy","trial_type":"audio-keyboard-response","trial_index":209,"time_elapsed":619605,"internal_node_id":"0.0-1.0-1.0-2.0-1.0","subject":"lr3mz0q1ezzvemg"},{"rt":null,"stimulus":"<div style=\"font-size:60px;\">+</div>","key_press":null,"block":"word","trial":"true","test_part":"isi","trial_type":"html-keyboard-response","trial_index":210,"time_elapsed":619810,"internal_node_id":"0.0-1.0-1.0-2.0-2.0","subject":"lr3mz0q1ezzvemg"},{"rt":597.2900000051595,"stimulus":"<p style=\"font-size: 48px; font-family: monospace;\">ANGRY</p>","key_press":39,"block":"word","trial":"true","task":"target","target_stimulus":"angry","target_emotion":"angry","condition":"incongruent","trial_type":"html-keyboard-response","trial_index":211,"time_elapsed":620408,"internal_node_id":"0.0-1.0-1.0-2.0-3.0","subject":"lr3mz0q1ezzvemg"},{"rt":null,"stimulus":"<div style=\"font-size:60px;\">+</div>","key_press":null,"block":"word","trial":"true","test_part":"iti","trial_type":"html-keyboard-response","trial_index":212,"time_elapsed":621914,"internal_node_id":"0.0-1.0-1.0-2.0-0.1","subject":"lr3mz0q1ezzvemg"},{"rt":null,"stimulus":"audio/26_Make_Light.mp3","key_press":null,"block":"word","trial":"true","task":"cue","cue_song":"audio/26_Make_Light.mp3","cue_emotion":"happy","trial_type":"audio-keyboard-response","trial_index":213,"time_elapsed":622920,"internal_node_id":"0.0-1.0-1.0-2.0-1.1","subject":"lr3mz0q1ezzvemg"},{"rt":null,"stimulus":"<div style=\"font-size:60px;\">+</div>","key_press":null,"block":"word","trial":"true","test_part":"isi","trial_type":"html-keyboard-response","trial_index":214,"time_elapsed":623122,"internal_node_id":"0.0-1.0-1.0-2.0-2.1","subject":"lr3mz0q1ezzvemg"},{"rt":678.6499999871012,"stimulus":"<p style=\"font-size: 48px; font-family: monospace;\">SAD</p>","key_press":39,"block":"word","trial":"true","task":"target","target_stimulus":"sad","target_emotion":"sad","condition":"incongruent","trial_type":"html-keyboard-response","trial_index":215,"time_elapsed":623802,"internal_node_id":"0.0-1.0-1.0-2.0-3.1","subject":"lr3mz0q1ezzvemg"},{"rt":null,"stimulus":"<div style=\"font-size:60px;\">+</div>","key_press":null,"block":"word","trial":"true","test_part":"iti","trial_type":"html-keyboard-response","trial_index":216,"time_elapsed":625303,"internal_node_id":"0.0-1.0-1.0-2.0-0.2","subject":"lr3mz0q1ezzvemg"},{"rt":null,"stimulus":"audio/12_Skinny_Love.mp3","key_press":null,"block":"word","trial":"true","task":"cue","cue_song":"audio/12_Skinny_Love.mp3","cue_emotion":"sad","trial_type":"audio-keyboard-response","trial_index":217,"time_elapsed":626304,"internal_node_id":"0.0-1.0-1.0-2.0-1.2","subject":"lr3mz0q1ezzvemg"},{"rt":null,"stimulus":"<div style=\"font-size:60px;\">+</div>","key_press":null,"block":"word","trial":"true","test_part":"isi","trial_type":"html-keyboard-response","trial_index":218,"time_elapsed":626507,"internal_node_id":"0.0-1.0-1.0-2.0-2.2","subject":"lr3mz0q1ezzvemg"},{"rt":529.7049999935552,"stimulus":"<p style=\"font-size: 48px; font-family: monospace;\">HAPPY</p>","key_press":39,"block":"word","trial":"true","task":"target","target_stimulus":"happy","target_emotion":"happy","condition":"incongruent","trial_type":"html-keyboard-response","trial_index":219,"time_elapsed":627037,"internal_node_id":"0.0-1.0-1.0-2.0-3.2","subject":"lr3mz0q1ezzvemg"},{"rt":null,"stimulus":"<div style=\"font-size:60px;\">+</div>","key_press":null,"block":"word","trial":"true","test_part":"iti","trial_type":"html-keyboard-response","trial_index":220,"time_elapsed":628539,"internal_node_id":"0.0-1.0-1.0-2.0-0.3","subject":"lr3mz0q1ezzvemg"},{"rt":null,"stimulus":"audio/21_Skank_Down.mp3","key_press":null,"block":"word","trial":"true","task":"cue","cue_song":"audio/21_Skank_Down.mp3","cue_emotion":"happy","trial_type":"audio-keyboard-response","trial_index":221,"time_elapsed":629545,"internal_node_id":"0.0-1.0-1.0-2.0-1.3","subject":"lr3mz0q1ezzvemg"},{"rt":null,"stimulus":"<div style=\"font-size:60px;\">+</div>","key_press":null,"block":"word","trial":"true","test_part":"isi","trial_type":"html-keyboard-response","trial_index":222,"time_elapsed":629745,"internal_node_id":"0.0-1.0-1.0-2.0-2.3","subject":"lr3mz0q1ezzvemg"},{"rt":742.3600000038277,"stimulus":"<p style=\"font-size: 48px; font-family: monospace;\">HAPPY</p>","key_press":37,"block":"word","trial":"true","task":"target","target_stimulus":"happy","target_emotion":"happy","condition":"congruent","trial_type":"html-keyboard-response","trial_index":223,"time_elapsed":630488,"internal_node_id":"0.0-1.0-1.0-2.0-3.3","subject":"lr3mz0q1ezzvemg"},{"rt":null,"stimulus":"<div style=\"font-size:60px;\">+</div>","key_press":null,"block":"word","trial":"true","test_part":"iti","trial_type":"html-keyboard-response","trial_index":224,"time_elapsed":631989,"internal_node_id":"0.0-1.0-1.0-2.0-0.4","subject":"lr3mz0q1ezzvemg"},{"rt":null,"stimulus":"audio/21_Skank_Down.mp3","key_press":null,"block":"word","trial":"true","task":"cue","cue_song":"audio/21_Skank_Down.mp3","cue_emotion":"happy","trial_type":"audio-keyboard-response","trial_index":225,"time_elapsed":632995,"internal_node_id":"0.0-1.0-1.0-2.0-1.4","subject":"lr3mz0q1ezzvemg"},{"rt":null,"stimulus":"<div style=\"font-size:60px;\">+</div>","key_press":null,"block":"word","trial":"true","test_part":"isi","trial_type":"html-keyboard-response","trial_index":226,"time_elapsed":633201,"internal_node_id":"0.0-1.0-1.0-2.0-2.4","subject":"lr3mz0q1ezzvemg"},{"rt":554.4250000093598,"stimulus":"<p style=\"font-size: 48px; font-family: monospace;\">ANGRY</p>","key_press":39,"block":"word","trial":"true","task":"target","target_stimulus":"angry","target_emotion":"angry","condition":"incongruent","trial_type":"html-keyboard-response","trial_index":227,"time_elapsed":633756,"internal_node_id":"0.0-1.0-1.0-2.0-3.4","subject":"lr3mz0q1ezzvemg"},{"rt":null,"stimulus":"<div style=\"font-size:60px;\">+</div>","key_press":null,"block":"word","trial":"true","test_part":"iti","trial_type":"html-keyboard-response","trial_index":228,"time_elapsed":635259,"internal_node_id":"0.0-1.0-1.0-2.0-0.5","subject":"lr3mz0q1ezzvemg"},{"rt":null,"stimulus":"audio/1_Be_Happy.mp3","key_press":null,"block":"word","trial":"true","task":"cue","cue_song":"audio/1_Be_Happy.mp3","cue_emotion":"happy","trial_type":"audio-keyboard-response","trial_index":229,"time_elapsed":636265,"internal_node_id":"0.0-1.0-1.0-2.0-1.5","subject":"lr3mz0q1ezzvemg"},{"rt":null,"stimulus":"<div style=\"font-size:60px;\">+</div>","key_press":null,"block":"word","trial":"true","test_part":"isi","trial_type":"html-keyboard-response","trial_index":230,"time_elapsed":636470,"internal_node_id":"0.0-1.0-1.0-2.0-2.5","subject":"lr3mz0q1ezzvemg"},{"rt":564.4200000097044,"stimulus":"<p style=\"font-size: 48px; font-family: monospace;\">HAPPY</p>","key_press":37,"block":"word","trial":"true","task":"target","target_stimulus":"happy","target_emotion":"happy","condition":"congruent","trial_type":"html-keyboard-response","trial_index":231,"time_elapsed":637035,"internal_node_id":"0.0-1.0-1.0-2.0-3.5","subject":"lr3mz0q1ezzvemg"},{"rt":null,"stimulus":"<div style=\"font-size:60px;\">+</div>","key_press":null,"block":"word","trial":"true","test_part":"iti","trial_type":"html-keyboard-response","trial_index":232,"time_elapsed":638541,"internal_node_id":"0.0-1.0-1.0-2.0-0.6","subject":"lr3mz0q1ezzvemg"},{"rt":null,"stimulus":"audio/21_Skank_Down.mp3","key_press":null,"block":"word","trial":"true","task":"cue","cue_song":"audio/21_Skank_Down.mp3","cue_emotion":"happy","trial_type":"audio-keyboard-response","trial_index":233,"time_elapsed":639548,"internal_node_id":"0.0-1.0-1.0-2.0-1.6","subject":"lr3mz0q1ezzvemg"},{"rt":null,"stimulus":"<div style=\"font-size:60px;\">+</div>","key_press":null,"block":"word","trial":"true","test_part":"isi","trial_type":"html-keyboard-response","trial_index":234,"time_elapsed":639754,"internal_node_id":"0.0-1.0-1.0-2.0-2.6","subject":"lr3mz0q1ezzvemg"},{"rt":520.570000007865,"stimulus":"<p style=\"font-size: 48px; font-family: monospace;\">SAD</p>","key_press":39,"block":"word","trial":"true","task":"target","target_stimulus":"sad","target_emotion":"sad","condition":"incongruent","trial_type":"html-keyboard-response","trial_index":235,"time_elapsed":640275,"internal_node_id":"0.0-1.0-1.0-2.0-3.6","subject":"lr3mz0q1ezzvemg"},{"rt":null,"stimulus":"<div style=\"font-size:60px;\">+</div>","key_press":null,"block":"word","trial":"true","test_part":"iti","trial_type":"html-keyboard-response","trial_index":236,"time_elapsed":641776,"internal_node_id":"0.0-1.0-1.0-2.0-0.7","subject":"lr3mz0q1ezzvemg"},{"rt":null,"stimulus":"audio/5_Valerie.mp3","key_press":null,"block":"word","trial":"true","task":"cue","cue_song":"audio/5_Valerie.mp3","cue_emotion":"happy","trial_type":"audio-keyboard-response","trial_index":237,"time_elapsed":642781,"internal_node_id":"0.0-1.0-1.0-2.0-1.7","subject":"lr3mz0q1ezzvemg"},{"rt":null,"stimulus":"<div style=\"font-size:60px;\">+</div>","key_press":null,"block":"word","trial":"true","test_part":"isi","trial_type":"html-keyboard-response","trial_index":238,"time_elapsed":642984,"internal_node_id":"0.0-1.0-1.0-2.0-2.7","subject":"lr3mz0q1ezzvemg"},{"rt":706.9199999968987,"stimulus":"<p style=\"font-size: 48px; font-family: monospace;\">SAD</p>","key_press":39,"block":"word","trial":"true","task":"target","target_stimulus":"sad","target_emotion":"sad","condition":"incongruent","trial_type":"html-keyboard-response","trial_index":239,"time_elapsed":643692,"internal_node_id":"0.0-1.0-1.0-2.0-3.7","subject":"lr3mz0q1ezzvemg"},{"rt":null,"stimulus":"<div style=\"font-size:60px;\">+</div>","key_press":null,"block":"word","trial":"true","test_part":"iti","trial_type":"html-keyboard-response","trial_index":240,"time_elapsed":645195,"internal_node_id":"0.0-1.0-1.0-2.0-0.8","subject":"lr3mz0q1ezzvemg"},{"rt":null,"stimulus":"audio/3_Old_Blacktop.mp3","key_press":null,"block":"word","trial":"true","task":"cue","cue_song":"audio/3_Old_Blacktop.mp3","cue_emotion":"sad","trial_type":"audio-keyboard-response","trial_index":241,"time_elapsed":646198,"internal_node_id":"0.0-1.0-1.0-2.0-1.8","subject":"lr3mz0q1ezzvemg"},{"rt":null,"stimulus":"<div style=\"font-size:60px;\">+</div>","key_press":null,"block":"word","trial":"true","test_part":"isi","trial_type":"html-keyboard-response","trial_index":242,"time_elapsed":646404,"internal_node_id":"0.0-1.0-1.0-2.0-2.8","subject":"lr3mz0q1ezzvemg"},{"rt":569.3299999984447,"stimulus":"<p style=\"font-size: 48px; font-family: monospace;\">SAD</p>","key_press":37,"block":"word","trial":"true","task":"target","target_stimulus":"sad","target_emotion":"sad","condition":"congruent","trial_type":"html-keyboard-response","trial_index":243,"time_elapsed":646974,"internal_node_id":"0.0-1.0-1.0-2.0-3.8","subject":"lr3mz0q1ezzvemg"},{"rt":null,"stimulus":"<div style=\"font-size:60px;\">+</div>","key_press":null,"block":"word","trial":"true","test_part":"iti","trial_type":"html-keyboard-response","trial_index":244,"time_elapsed":648478,"internal_node_id":"0.0-1.0-1.0-2.0-0.9","subject":"lr3mz0q1ezzvemg"},{"rt":null,"stimulus":"audio/21_Skank_Down.mp3","key_press":null,"block":"word","trial":"true","task":"cue","cue_song":"audio/21_Skank_Down.mp3","cue_emotion":"happy","trial_type":"audio-keyboard-response","trial_index":245,"time_elapsed":649484,"internal_node_id":"0.0-1.0-1.0-2.0-1.9","subject":"lr3mz0q1ezzvemg"},{"rt":null,"stimulus":"<div style=\"font-size:60px;\">+</div>","key_press":null,"block":"word","trial":"true","test_part":"isi","trial_type":"html-keyboard-response","trial_index":246,"time_elapsed":649685,"internal_node_id":"0.0-1.0-1.0-2.0-2.9","subject":"lr3mz0q1ezzvemg"},{"rt":503.26500000664964,"stimulus":"<p style=\"font-size: 48px; font-family: monospace;\">SAD</p>","key_press":39,"block":"word","trial":"true","task":"target","target_stimulus":"sad","target_emotion":"sad","condition":"incongruent","trial_type":"html-keyboard-response","trial_index":247,"time_elapsed":650189,"internal_node_id":"0.0-1.0-1.0-2.0-3.9","subject":"lr3mz0q1ezzvemg"},{"rt":null,"stimulus":"<div style=\"font-size:60px;\">+</div>","key_press":null,"block":"word","trial":"true","test_part":"iti","trial_type":"html-keyboard-response","trial_index":248,"time_elapsed":651695,"internal_node_id":"0.0-1.0-1.0-2.0-0.10","subject":"lr3mz0q1ezzvemg"},{"rt":null,"stimulus":"audio/12_Skinny_Love.mp3","key_press":null,"block":"word","trial":"true","task":"cue","cue_song":"audio/12_Skinny_Love.mp3","cue_emotion":"sad","trial_type":"audio-keyboard-response","trial_index":249,"time_elapsed":652696,"internal_node_id":"0.0-1.0-1.0-2.0-1.10","subject":"lr3mz0q1ezzvemg"},{"rt":null,"stimulus":"<div style=\"font-size:60px;\">+</div>","key_press":null,"block":"word","trial":"true","test_part":"isi","trial_type":"html-keyboard-response","trial_index":250,"time_elapsed":652902,"internal_node_id":"0.0-1.0-1.0-2.0-2.10","subject":"lr3mz0q1ezzvemg"},{"rt":626.5550000098301,"stimulus":"<p style=\"font-size: 48px; font-family: monospace;\">ANGRY</p>","key_press":39,"block":"word","trial":"true","task":"target","target_stimulus":"angry","target_emotion":"angry","condition":"incongruent","trial_type":"html-keyboard-response","trial_index":251,"time_elapsed":653530,"internal_node_id":"0.0-1.0-1.0-2.0-3.10","subject":"lr3mz0q1ezzvemg"},{"rt":null,"stimulus":"<div style=\"font-size:60px;\">+</div>","key_press":null,"block":"word","trial":"true","test_part":"iti","trial_type":"html-keyboard-response","trial_index":252,"time_elapsed":655036,"internal_node_id":"0.0-1.0-1.0-2.0-0.11","subject":"lr3mz0q1ezzvemg"},{"rt":null,"stimulus":"audio/5_Valerie.mp3","key_press":null,"block":"word","trial":"true","task":"cue","cue_song":"audio/5_Valerie.mp3","cue_emotion":"happy","trial_type":"audio-keyboard-response","trial_index":253,"time_elapsed":656041,"internal_node_id":"0.0-1.0-1.0-2.0-1.11","subject":"lr3mz0q1ezzvemg"},{"rt":null,"stimulus":"<div style=\"font-size:60px;\">+</div>","key_press":null,"block":"word","trial":"true","test_part":"isi","trial_type":"html-keyboard-response","trial_index":254,"time_elapsed":656246,"internal_node_id":"0.0-1.0-1.0-2.0-2.11","subject":"lr3mz0q1ezzvemg"},{"rt":458.8800000055926,"stimulus":"<p style=\"font-size: 48px; font-family: monospace;\">SAD</p>","key_press":39,"block":"word","trial":"true","task":"target","target_stimulus":"sad","target_emotion":"sad","condition":"incongruent","trial_type":"html-keyboard-response","trial_index":255,"time_elapsed":656706,"internal_node_id":"0.0-1.0-1.0-2.0-3.11","subject":"lr3mz0q1ezzvemg"},{"rt":null,"stimulus":"<div style=\"font-size:60px;\">+</div>","key_press":null,"block":"word","trial":"true","test_part":"iti","trial_type":"html-keyboard-response","trial_index":256,"time_elapsed":658212,"internal_node_id":"0.0-1.0-1.0-2.0-0.12","subject":"lr3mz0q1ezzvemg"},{"rt":null,"stimulus":"audio/3_Old_Blacktop.mp3","key_press":null,"block":"word","trial":"true","task":"cue","cue_song":"audio/3_Old_Blacktop.mp3","cue_emotion":"sad","trial_type":"audio-keyboard-response","trial_index":257,"time_elapsed":659216,"internal_node_id":"0.0-1.0-1.0-2.0-1.12","subject":"lr3mz0q1ezzvemg"},{"rt":null,"stimulus":"<div style=\"font-size:60px;\">+</div>","key_press":null,"block":"word","trial":"true","test_part":"isi","trial_type":"html-keyboard-response","trial_index":258,"time_elapsed":659421,"internal_node_id":"0.0-1.0-1.0-2.0-2.12","subject":"lr3mz0q1ezzvemg"},{"rt":553.2700000039767,"stimulus":"<p style=\"font-size: 48px; font-family: monospace;\">ANGRY</p>","key_press":39,"block":"word","trial":"true","task":"target","target_stimulus":"angry","target_emotion":"angry","condition":"incongruent","trial_type":"html-keyboard-response","trial_index":259,"time_elapsed":659975,"internal_node_id":"0.0-1.0-1.0-2.0-3.12","subject":"lr3mz0q1ezzvemg"},{"rt":null,"stimulus":"<div style=\"font-size:60px;\">+</div>","key_press":null,"block":"word","trial":"true","test_part":"iti","trial_type":"html-keyboard-response","trial_index":260,"time_elapsed":661479,"internal_node_id":"0.0-1.0-1.0-2.0-0.13","subject":"lr3mz0q1ezzvemg"},{"rt":null,"stimulus":"audio/12_Skinny_Love.mp3","key_press":null,"block":"word","trial":"true","task":"cue","cue_song":"audio/12_Skinny_Love.mp3","cue_emotion":"sad","trial_type":"audio-keyboard-response","trial_index":261,"time_elapsed":662484,"internal_node_id":"0.0-1.0-1.0-2.0-1.13","subject":"lr3mz0q1ezzvemg"},{"rt":null,"stimulus":"<div style=\"font-size:60px;\">+</div>","key_press":null,"block":"word","trial":"true","test_part":"isi","trial_type":"html-keyboard-response","trial_index":262,"time_elapsed":662689,"internal_node_id":"0.0-1.0-1.0-2.0-2.13","subject":"lr3mz0q1ezzvemg"},{"rt":458.04000001226086,"stimulus":"<p style=\"font-size: 48px; font-family: monospace;\">SAD</p>","key_press":37,"block":"word","trial":"true","task":"target","target_stimulus":"sad","target_emotion":"sad","condition":"congruent","trial_type":"html-keyboard-response","trial_index":263,"time_elapsed":663148,"internal_node_id":"0.0-1.0-1.0-2.0-3.13","subject":"lr3mz0q1ezzvemg"},{"rt":null,"stimulus":"<div style=\"font-size:60px;\">+</div>","key_press":null,"block":"word","trial":"true","test_part":"iti","trial_type":"html-keyboard-response","trial_index":264,"time_elapsed":664649,"internal_node_id":"0.0-1.0-1.0-2.0-0.14","subject":"lr3mz0q1ezzvemg"},{"rt":null,"stimulus":"audio/8_Fire_And_Rain__(LP_Version).mp3","key_press":null,"block":"word","trial":"true","task":"cue","cue_song":"audio/8_Fire_And_Rain__(LP_Version).mp3","cue_emotion":"sad","trial_type":"audio-keyboard-response","trial_index":265,"time_elapsed":665654,"internal_node_id":"0.0-1.0-1.0-2.0-1.14","subject":"lr3mz0q1ezzvemg"},{"rt":null,"stimulus":"<div style=\"font-size:60px;\">+</div>","key_press":null,"block":"word","trial":"true","test_part":"isi","trial_type":"html-keyboard-response","trial_index":266,"time_elapsed":665856,"internal_node_id":"0.0-1.0-1.0-2.0-2.14","subject":"lr3mz0q1ezzvemg"},{"rt":598.8999999972293,"stimulus":"<p style=\"font-size: 48px; font-family: monospace;\">ANGRY</p>","key_press":39,"block":"word","trial":"true","task":"target","target_stimulus":"angry","target_emotion":"angry","condition":"incongruent","trial_type":"html-keyboard-response","trial_index":267,"time_elapsed":666456,"internal_node_id":"0.0-1.0-1.0-2.0-3.14","subject":"lr3mz0q1ezzvemg"},{"rt":null,"stimulus":"<div style=\"font-size:60px;\">+</div>","key_press":null,"block":"word","trial":"true","test_part":"iti","trial_type":"html-keyboard-response","trial_index":268,"time_elapsed":667958,"internal_node_id":"0.0-1.0-1.0-2.0-0.15","subject":"lr3mz0q1ezzvemg"},{"rt":null,"stimulus":"audio/8_Fire_And_Rain__(LP_Version).mp3","key_press":null,"block":"word","trial":"true","task":"cue","cue_song":"audio/8_Fire_And_Rain__(LP_Version).mp3","cue_emotion":"sad","trial_type":"audio-keyboard-response","trial_index":269,"time_elapsed":668964,"internal_node_id":"0.0-1.0-1.0-2.0-1.15","subject":"lr3mz0q1ezzvemg"},{"rt":null,"stimulus":"<div style=\"font-size:60px;\">+</div>","key_press":null,"block":"word","trial":"true","test_part":"isi","trial_type":"html-keyboard-response","trial_index":270,"time_elapsed":669170,"internal_node_id":"0.0-1.0-1.0-2.0-2.15","subject":"lr3mz0q1ezzvemg"},{"rt":471.31500000250526,"stimulus":"<p style=\"font-size: 48px; font-family: monospace;\">ANGRY</p>","key_press":39,"block":"word","trial":"true","task":"target","target_stimulus":"angry","target_emotion":"angry","condition":"incongruent","trial_type":"html-keyboard-response","trial_index":271,"time_elapsed":669642,"internal_node_id":"0.0-1.0-1.0-2.0-3.15","subject":"lr3mz0q1ezzvemg"},{"rt":null,"stimulus":"<div style=\"font-size:60px;\">+</div>","key_press":null,"block":"word","trial":"true","test_part":"iti","trial_type":"html-keyboard-response","trial_index":272,"time_elapsed":671146,"internal_node_id":"0.0-1.0-1.0-2.0-0.16","subject":"lr3mz0q1ezzvemg"},{"rt":null,"stimulus":"audio/2_Loves_Requiem.mp3","key_press":null,"block":"word","trial":"true","task":"cue","cue_song":"audio/2_Loves_Requiem.mp3","cue_emotion":"sad","trial_type":"audio-keyboard-response","trial_index":273,"time_elapsed":672150,"internal_node_id":"0.0-1.0-1.0-2.0-1.16","subject":"lr3mz0q1ezzvemg"},{"rt":null,"stimulus":"<div style=\"font-size:60px;\">+</div>","key_press":null,"block":"word","trial":"true","test_part":"isi","trial_type":"html-keyboard-response","trial_index":274,"time_elapsed":672356,"internal_node_id":"0.0-1.0-1.0-2.0-2.16","subject":"lr3mz0q1ezzvemg"},{"rt":476.1549999966519,"stimulus":"<p style=\"font-size: 48px; font-family: monospace;\">ANGRY</p>","key_press":39,"block":"word","trial":"true","task":"target","target_stimulus":"angry","target_emotion":"angry","condition":"incongruent","trial_type":"html-keyboard-response","trial_index":275,"time_elapsed":672833,"internal_node_id":"0.0-1.0-1.0-2.0-3.16","subject":"lr3mz0q1ezzvemg"},{"rt":null,"stimulus":"<div style=\"font-size:60px;\">+</div>","key_press":null,"block":"word","trial":"true","test_part":"iti","trial_type":"html-keyboard-response","trial_index":276,"time_elapsed":674339,"internal_node_id":"0.0-1.0-1.0-2.0-0.17","subject":"lr3mz0q1ezzvemg"},{"rt":null,"stimulus":"audio/1_Be_Happy.mp3","key_press":null,"block":"word","trial":"true","task":"cue","cue_song":"audio/1_Be_Happy.mp3","cue_emotion":"happy","trial_type":"audio-keyboard-response","trial_index":277,"time_elapsed":675342,"internal_node_id":"0.0-1.0-1.0-2.0-1.17","subject":"lr3mz0q1ezzvemg"},{"rt":null,"stimulus":"<div style=\"font-size:60px;\">+</div>","key_press":null,"block":"word","trial":"true","test_part":"isi","trial_type":"html-keyboard-response","trial_index":278,"time_elapsed":675547,"internal_node_id":"0.0-1.0-1.0-2.0-2.17","subject":"lr3mz0q1ezzvemg"},{"rt":440.8700000058161,"stimulus":"<p style=\"font-size: 48px; font-family: monospace;\">SAD</p>","key_press":39,"block":"word","trial":"true","task":"target","target_stimulus":"sad","target_emotion":"sad","condition":"incongruent","trial_type":"html-keyboard-response","trial_index":279,"time_elapsed":675988,"internal_node_id":"0.0-1.0-1.0-2.0-3.17","subject":"lr3mz0q1ezzvemg"},{"rt":null,"stimulus":"<div style=\"font-size:60px;\">+</div>","key_press":null,"block":"word","trial":"true","test_part":"iti","trial_type":"html-keyboard-response","trial_index":280,"time_elapsed":677494,"internal_node_id":"0.0-1.0-1.0-2.0-0.18","subject":"lr3mz0q1ezzvemg"},{"rt":null,"stimulus":"audio/26_Make_Light.mp3","key_press":null,"block":"word","trial":"true","task":"cue","cue_song":"audio/26_Make_Light.mp3","cue_emotion":"happy","trial_type":"audio-keyboard-response","trial_index":281,"time_elapsed":678499,"internal_node_id":"0.0-1.0-1.0-2.0-1.18","subject":"lr3mz0q1ezzvemg"},{"rt":null,"stimulus":"<div style=\"font-size:60px;\">+</div>","key_press":null,"block":"word","trial":"true","test_part":"isi","trial_type":"html-keyboard-response","trial_index":282,"time_elapsed":678705,"internal_node_id":"0.0-1.0-1.0-2.0-2.18","subject":"lr3mz0q1ezzvemg"},{"rt":429.3899999902351,"stimulus":"<p style=\"font-size: 48px; font-family: monospace;\">HAPPY</p>","key_press":37,"block":"word","trial":"true","task":"target","target_stimulus":"happy","target_emotion":"happy","condition":"congruent","trial_type":"html-keyboard-response","trial_index":283,"time_elapsed":679135,"internal_node_id":"0.0-1.0-1.0-2.0-3.18","subject":"lr3mz0q1ezzvemg"},{"rt":null,"stimulus":"<div style=\"font-size:60px;\">+</div>","key_press":null,"block":"word","trial":"true","test_part":"iti","trial_type":"html-keyboard-response","trial_index":284,"time_elapsed":680640,"internal_node_id":"0.0-1.0-1.0-2.0-0.19","subject":"lr3mz0q1ezzvemg"},{"rt":null,"stimulus":"audio/3_Old_Blacktop.mp3","key_press":null,"block":"word","trial":"true","task":"cue","cue_song":"audio/3_Old_Blacktop.mp3","cue_emotion":"sad","trial_type":"audio-keyboard-response","trial_index":285,"time_elapsed":681645,"internal_node_id":"0.0-1.0-1.0-2.0-1.19","subject":"lr3mz0q1ezzvemg"},{"rt":null,"stimulus":"<div style=\"font-size:60px;\">+</div>","key_press":null,"block":"word","trial":"true","test_part":"isi","trial_type":"html-keyboard-response","trial_index":286,"time_elapsed":681847,"internal_node_id":"0.0-1.0-1.0-2.0-2.19","subject":"lr3mz0q1ezzvemg"},{"rt":485.58500000217464,"stimulus":"<p style=\"font-size: 48px; font-family: monospace;\">ANGRY</p>","key_press":39,"block":"word","trial":"true","task":"target","target_stimulus":"angry","target_emotion":"angry","condition":"incongruent","trial_type":"html-keyboard-response","trial_index":287,"time_elapsed":682334,"internal_node_id":"0.0-1.0-1.0-2.0-3.19","subject":"lr3mz0q1ezzvemg"},{"rt":null,"stimulus":"<div style=\"font-size:60px;\">+</div>","key_press":null,"block":"word","trial":"true","test_part":"iti","trial_type":"html-keyboard-response","trial_index":288,"time_elapsed":683835,"internal_node_id":"0.0-1.0-1.0-2.0-0.20","subject":"lr3mz0q1ezzvemg"},{"rt":null,"stimulus":"audio/2_Loves_Requiem.mp3","key_press":null,"block":"word","trial":"true","task":"cue","cue_song":"audio/2_Loves_Requiem.mp3","cue_emotion":"sad","trial_type":"audio-keyboard-response","trial_index":289,"time_elapsed":684839,"internal_node_id":"0.0-1.0-1.0-2.0-1.20","subject":"lr3mz0q1ezzvemg"},{"rt":null,"stimulus":"<div style=\"font-size:60px;\">+</div>","key_press":null,"block":"word","trial":"true","test_part":"isi","trial_type":"html-keyboard-response","trial_index":290,"time_elapsed":685045,"internal_node_id":"0.0-1.0-1.0-2.0-2.20","subject":"lr3mz0q1ezzvemg"},{"rt":411.25499999907333,"stimulus":"<p style=\"font-size: 48px; font-family: monospace;\">SAD</p>","key_press":37,"block":"word","trial":"true","task":"target","target_stimulus":"sad","target_emotion":"sad","condition":"congruent","trial_type":"html-keyboard-response","trial_index":291,"time_elapsed":685457,"internal_node_id":"0.0-1.0-1.0-2.0-3.20","subject":"lr3mz0q1ezzvemg"},{"rt":null,"stimulus":"<div style=\"font-size:60px;\">+</div>","key_press":null,"block":"word","trial":"true","test_part":"iti","trial_type":"html-keyboard-response","trial_index":292,"time_elapsed":686963,"internal_node_id":"0.0-1.0-1.0-2.0-0.21","subject":"lr3mz0q1ezzvemg"},{"rt":null,"stimulus":"audio/2_Loves_Requiem.mp3","key_press":null,"block":"word","trial":"true","task":"cue","cue_song":"audio/2_Loves_Requiem.mp3","cue_emotion":"sad","trial_type":"audio-keyboard-response","trial_index":293,"time_elapsed":687966,"internal_node_id":"0.0-1.0-1.0-2.0-1.21","subject":"lr3mz0q1ezzvemg"},{"rt":null,"stimulus":"<div style=\"font-size:60px;\">+</div>","key_press":null,"block":"word","trial":"true","test_part":"isi","trial_type":"html-keyboard-response","trial_index":294,"time_elapsed":688170,"internal_node_id":"0.0-1.0-1.0-2.0-2.21","subject":"lr3mz0q1ezzvemg"},{"rt":490.71499999263324,"stimulus":"<p style=\"font-size: 48px; font-family: monospace;\">SAD</p>","key_press":37,"block":"word","trial":"true","task":"target","target_stimulus":"sad","target_emotion":"sad","condition":"congruent","trial_type":"html-keyboard-response","trial_index":295,"time_elapsed":688661,"internal_node_id":"0.0-1.0-1.0-2.0-3.21","subject":"lr3mz0q1ezzvemg"},{"rt":null,"stimulus":"<div style=\"font-size:60px;\">+</div>","key_press":null,"block":"word","trial":"true","test_part":"iti","trial_type":"html-keyboard-response","trial_index":296,"time_elapsed":690167,"internal_node_id":"0.0-1.0-1.0-2.0-0.22","subject":"lr3mz0q1ezzvemg"},{"rt":null,"stimulus":"audio/8_Fire_And_Rain__(LP_Version).mp3","key_press":null,"block":"word","trial":"true","task":"cue","cue_song":"audio/8_Fire_And_Rain__(LP_Version).mp3","cue_emotion":"sad","trial_type":"audio-keyboard-response","trial_index":297,"time_elapsed":691173,"internal_node_id":"0.0-1.0-1.0-2.0-1.22","subject":"lr3mz0q1ezzvemg"},{"rt":null,"stimulus":"<div style=\"font-size:60px;\">+</div>","key_press":null,"block":"word","trial":"true","test_part":"isi","trial_type":"html-keyboard-response","trial_index":298,"time_elapsed":691376,"internal_node_id":"0.0-1.0-1.0-2.0-2.22","subject":"lr3mz0q1ezzvemg"},{"rt":480.60500000428874,"stimulus":"<p style=\"font-size: 48px; font-family: monospace;\">HAPPY</p>","key_press":39,"block":"word","trial":"true","task":"target","target_stimulus":"happy","target_emotion":"happy","condition":"incongruent","trial_type":"html-keyboard-response","trial_index":299,"time_elapsed":691858,"internal_node_id":"0.0-1.0-1.0-2.0-3.22","subject":"lr3mz0q1ezzvemg"},{"rt":null,"stimulus":"<div style=\"font-size:60px;\">+</div>","key_press":null,"block":"word","trial":"true","test_part":"iti","trial_type":"html-keyboard-response","trial_index":300,"time_elapsed":693359,"internal_node_id":"0.0-1.0-1.0-2.0-0.23","subject":"lr3mz0q1ezzvemg"},{"rt":null,"stimulus":"audio/1_Be_Happy.mp3","key_press":null,"block":"word","trial":"true","task":"cue","cue_song":"audio/1_Be_Happy.mp3","cue_emotion":"happy","trial_type":"audio-keyboard-response","trial_index":301,"time_elapsed":694364,"internal_node_id":"0.0-1.0-1.0-2.0-1.23","subject":"lr3mz0q1ezzvemg"},{"rt":null,"stimulus":"<div style=\"font-size:60px;\">+</div>","key_press":null,"block":"word","trial":"true","test_part":"isi","trial_type":"html-keyboard-response","trial_index":302,"time_elapsed":694567,"internal_node_id":"0.0-1.0-1.0-2.0-2.23","subject":"lr3mz0q1ezzvemg"},{"rt":478.5100000008242,"stimulus":"<p style=\"font-size: 48px; font-family: monospace;\">ANGRY</p>","key_press":39,"block":"word","trial":"true","task":"target","target_stimulus":"angry","target_emotion":"angry","condition":"incongruent","trial_type":"html-keyboard-response","trial_index":303,"time_elapsed":695047,"internal_node_id":"0.0-1.0-1.0-2.0-3.23","subject":"lr3mz0q1ezzvemg"},{"rt":null,"stimulus":"<div style=\"font-size:60px;\">+</div>","key_press":null,"block":"word","trial":"true","test_part":"iti","trial_type":"html-keyboard-response","trial_index":304,"time_elapsed":696553,"internal_node_id":"0.0-1.0-1.0-2.0-0.24","subject":"lr3mz0q1ezzvemg"},{"rt":null,"stimulus":"audio/3_Old_Blacktop.mp3","key_press":null,"block":"word","trial":"true","task":"cue","cue_song":"audio/3_Old_Blacktop.mp3","cue_emotion":"sad","trial_type":"audio-keyboard-response","trial_index":305,"time_elapsed":697557,"internal_node_id":"0.0-1.0-1.0-2.0-1.24","subject":"lr3mz0q1ezzvemg"},{"rt":null,"stimulus":"<div style=\"font-size:60px;\">+</div>","key_press":null,"block":"word","trial":"true","test_part":"isi","trial_type":"html-keyboard-response","trial_index":306,"time_elapsed":697759,"internal_node_id":"0.0-1.0-1.0-2.0-2.24","subject":"lr3mz0q1ezzvemg"},{"rt":469.874999995227,"stimulus":"<p style=\"font-size: 48px; font-family: monospace;\">SAD</p>","key_press":37,"block":"word","trial":"true","task":"target","target_stimulus":"sad","target_emotion":"sad","condition":"congruent","trial_type":"html-keyboard-response","trial_index":307,"time_elapsed":698230,"internal_node_id":"0.0-1.0-1.0-2.0-3.24","subject":"lr3mz0q1ezzvemg"},{"rt":null,"stimulus":"<div style=\"font-size:60px;\">+</div>","key_press":null,"block":"word","trial":"true","test_part":"iti","trial_type":"html-keyboard-response","trial_index":308,"time_elapsed":699733,"internal_node_id":"0.0-1.0-1.0-2.0-0.25","subject":"lr3mz0q1ezzvemg"},{"rt":null,"stimulus":"audio/1_Be_Happy.mp3","key_press":null,"block":"word","trial":"true","task":"cue","cue_song":"audio/1_Be_Happy.mp3","cue_emotion":"happy","trial_type":"audio-keyboard-response","trial_index":309,"time_elapsed":700738,"internal_node_id":"0.0-1.0-1.0-2.0-1.25","subject":"lr3mz0q1ezzvemg"},{"rt":null,"stimulus":"<div style=\"font-size:60px;\">+</div>","key_press":null,"block":"word","trial":"true","test_part":"isi","trial_type":"html-keyboard-response","trial_index":310,"time_elapsed":700944,"internal_node_id":"0.0-1.0-1.0-2.0-2.25","subject":"lr3mz0q1ezzvemg"},{"rt":458.28000000619795,"stimulus":"<p style=\"font-size: 48px; font-family: monospace;\">ANGRY</p>","key_press":39,"block":"word","trial":"true","task":"target","target_stimulus":"angry","target_emotion":"angry","condition":"incongruent","trial_type":"html-keyboard-response","trial_index":311,"time_elapsed":701403,"internal_node_id":"0.0-1.0-1.0-2.0-3.25","subject":"lr3mz0q1ezzvemg"},{"rt":null,"stimulus":"<div style=\"font-size:60px;\">+</div>","key_press":null,"block":"word","trial":"true","test_part":"iti","trial_type":"html-keyboard-response","trial_index":312,"time_elapsed":702904,"internal_node_id":"0.0-1.0-1.0-2.0-0.26","subject":"lr3mz0q1ezzvemg"},{"rt":null,"stimulus":"audio/26_Make_Light.mp3","key_press":null,"block":"word","trial":"true","task":"cue","cue_song":"audio/26_Make_Light.mp3","cue_emotion":"happy","trial_type":"audio-keyboard-response","trial_index":313,"time_elapsed":703910,"internal_node_id":"0.0-1.0-1.0-2.0-1.26","subject":"lr3mz0q1ezzvemg"},{"rt":null,"stimulus":"<div style=\"font-size:60px;\">+</div>","key_press":null,"block":"word","trial":"true","test_part":"isi","trial_type":"html-keyboard-response","trial_index":314,"time_elapsed":704116,"internal_node_id":"0.0-1.0-1.0-2.0-2.26","subject":"lr3mz0q1ezzvemg"},{"rt":733.6650000070222,"stimulus":"<p style=\"font-size: 48px; font-family: monospace;\">ANGRY</p>","key_press":39,"block":"word","trial":"true","task":"target","target_stimulus":"angry","target_emotion":"angry","condition":"incongruent","trial_type":"html-keyboard-response","trial_index":315,"time_elapsed":704850,"internal_node_id":"0.0-1.0-1.0-2.0-3.26","subject":"lr3mz0q1ezzvemg"},{"rt":null,"stimulus":"<div style=\"font-size:60px;\">+</div>","key_press":null,"block":"word","trial":"true","test_part":"iti","trial_type":"html-keyboard-response","trial_index":316,"time_elapsed":706353,"internal_node_id":"0.0-1.0-1.0-2.0-0.27","subject":"lr3mz0q1ezzvemg"},{"rt":null,"stimulus":"audio/12_Skinny_Love.mp3","key_press":null,"block":"word","trial":"true","task":"cue","cue_song":"audio/12_Skinny_Love.mp3","cue_emotion":"sad","trial_type":"audio-keyboard-response","trial_index":317,"time_elapsed":707359,"internal_node_id":"0.0-1.0-1.0-2.0-1.27","subject":"lr3mz0q1ezzvemg"},{"rt":null,"stimulus":"<div style=\"font-size:60px;\">+</div>","key_press":null,"block":"word","trial":"true","test_part":"isi","trial_type":"html-keyboard-response","trial_index":318,"time_elapsed":707562,"internal_node_id":"0.0-1.0-1.0-2.0-2.27","subject":"lr3mz0q1ezzvemg"},{"rt":470.05499999795575,"stimulus":"<p style=\"font-size: 48px; font-family: monospace;\">HAPPY</p>","key_press":39,"block":"word","trial":"true","task":"target","target_stimulus":"happy","target_emotion":"happy","condition":"incongruent","trial_type":"html-keyboard-response","trial_index":319,"time_elapsed":708033,"internal_node_id":"0.0-1.0-1.0-2.0-3.27","subject":"lr3mz0q1ezzvemg"},{"rt":null,"stimulus":"<div style=\"font-size:60px;\">+</div>","key_press":null,"block":"word","trial":"true","test_part":"iti","trial_type":"html-keyboard-response","trial_index":320,"time_elapsed":709537,"internal_node_id":"0.0-1.0-1.0-2.0-0.28","subject":"lr3mz0q1ezzvemg"},{"rt":null,"stimulus":"audio/26_Make_Light.mp3","key_press":null,"block":"word","trial":"true","task":"cue","cue_song":"audio/26_Make_Light.mp3","cue_emotion":"happy","trial_type":"audio-keyboard-response","trial_index":321