[{"rt":7050.58000003919,"url":"static/consent.html","trial_type":"external-html","trial_index":0,"time_elapsed":7168,"internal_node_id":"0.0-0.0","subject":"nmzxre6kplh8zth"},{"view_history":"[{\"page_index\":0,\"viewing_time\":2958.184999995865},{\"page_index\":1,\"viewing_time\":2259.4450000906363},{\"page_index\":2,\"viewing_time\":2108.799999929033},{\"page_index\":3,\"viewing_time\":2926.655000075698},{\"page_index\":4,\"viewing_time\":3502.3499999661},{\"page_index\":5,\"viewing_time\":32109.39999995753}]","rt":45865.47000007704,"trial_type":"instructions","trial_index":1,"time_elapsed":53037,"internal_node_id":"0.0-1.0","subject":"nmzxre6kplh8zth"},{"rt":20034.864999935962,"stimulus":"<p>Before you start you will complete some practice trials<br><br></p>You will first here a song and then after a very short pause hear anotehr song, view an image, or see a word. <br><br>If the emotion of the song and the emotion of the second stimulus <strong> match </strong> press the left arrow key <strong>(&larr;)</strong><br></p><p>If the emotion of the song and the second stimulus <strong>do not match </strong> then press the right arrow key <strong>(&rarr;)</p></strong><p>Please be as quick and accurate as possible</p><p>Press the space bar to begin</p>","key_press":32,"task":"instruction","trial_type":"html-keyboard-response","trial_index":2,"time_elapsed":73071,"internal_node_id":"0.0-2.0","subject":"nmzxre6kplh8zth"},{"rt":4595.124999992549,"stimulus":"static/img/instruct.jpg","key_press":37,"trial_type":"image-keyboard-response","trial_index":3,"time_elapsed":77670,"internal_node_id":"0.0-3.0","subject":"nmzxre6kplh8zth"},{"rt":null,"stimulus":"<div style=\"font-size:60px;\">+</div>","key_press":null,"trial":"false","test_part":"iti","trial_type":"html-keyboard-response","trial_index":4,"time_elapsed":79181,"internal_node_id":"0.0-4.0-0.0-0.0-0.0","subject":"nmzxre6kplh8zth"},{"rt":null,"stimulus":"audio/15_Bunkertor_7.mp3","key_press":null,"trial":"false","trial_type":"audio-keyboard-response","trial_index":5,"time_elapsed":80194,"internal_node_id":"0.0-4.0-0.0-0.0-1.0","subject":"nmzxre6kplh8zth"},{"rt":null,"stimulus":"<div style=\"font-size:60px;\">+</div>","key_press":null,"trial":"false","test_part":"isi","trial_type":"html-keyboard-response","trial_index":6,"time_elapsed":80400,"internal_node_id":"0.0-4.0-0.0-0.0-2.0","subject":"nmzxre6kplh8zth"},{"rt":1927.034999942407,"stimulus":"<p style=\"font-size: 48px; font-family: monospace;\">SAD</p>","key_press":39,"trial":"false","task":"face_practice_target","trial_type":"html-keyboard-response","trial_index":7,"time_elapsed":82331,"internal_node_id":"0.0-4.0-0.0-0.0-3.0","subject":"nmzxre6kplh8zth","correct":true},{"rt":2416.3399999961257,"stimulus":"<p>Correct! The emotions do not match!</p><br> Press the any key to continue to the next trial","key_press":40,"trial":"false","trial_type":"html-keyboard-response","trial_index":8,"time_elapsed":84750,"internal_node_id":"0.0-4.0-0.0-0.0-4.0","subject":"nmzxre6kplh8zth"},{"rt":null,"stimulus":"<div style=\"font-size:60px;\">+</div>","key_press":null,"trial":"false","test_part":"iti","trial_type":"html-keyboard-response","trial_index":9,"time_elapsed":86254,"internal_node_id":"0.0-4.0-0.0-1.0-0.0","subject":"nmzxre6kplh8zth"},{"rt":null,"stimulus":"audio/15_Bunkertor_7.mp3","key_press":null,"trial":"false","trial_type":"audio-keyboard-response","trial_index":10,"time_elapsed":87264,"internal_node_id":"0.0-4.0-0.0-1.0-1.0","subject":"nmzxre6kplh8zth"},{"rt":null,"stimulus":"<div style=\"font-size:60px;\">+</div>","key_press":null,"trial":"false","test_part":"isi","trial_type":"html-keyboard-response","trial_index":11,"time_elapsed":87472,"internal_node_id":"0.0-4.0-0.0-1.0-2.0","subject":"nmzxre6kplh8zth"},{"rt":1311.6249999729916,"stimulus":"<p style=\"font-size: 48px; font-family: monospace;\">SAD</p>","key_press":39,"trial":"false","task":"face_practice_target","trial_type":"html-keyboard-response","trial_index":12,"time_elapsed":88787,"internal_node_id":"0.0-4.0-0.0-1.0-3.0","subject":"nmzxre6kplh8zth","correct":true},{"rt":4949.909999966621,"stimulus":"<p>Correct! The emotions do not match!</p><br> Press the any key to continue to the next trial","key_press":39,"trial":"false","trial_type":"html-keyboard-response","trial_index":13,"time_elapsed":93739,"internal_node_id":"0.0-4.0-0.0-1.0-4.0","subject":"nmzxre6kplh8zth"},{"rt":null,"stimulus":"<div style=\"font-size:60px;\">+</div>","key_press":null,"trial":"false","test_part":"iti","trial_type":"html-keyboard-response","trial_index":14,"time_elapsed":95242,"internal_node_id":"0.0-4.0-0.0-2.0-0.0","subject":"nmzxre6kplh8zth"},{"rt":null,"stimulus":"audio/15_Bunkertor_7.mp3","key_press":null,"trial":"false","trial_type":"audio-keyboard-response","trial_index":15,"time_elapsed":96251,"internal_node_id":"0.0-4.0-0.0-2.0-1.0","subject":"nmzxre6kplh8zth"},{"rt":null,"stimulus":"<div style=\"font-size:60px;\">+</div>","key_press":null,"trial":"false","test_part":"isi","trial_type":"html-keyboard-response","trial_index":16,"time_elapsed":96462,"internal_node_id":"0.0-4.0-0.0-2.0-2.0","subject":"nmzxre6kplh8zth"},{"rt":1142.1299999346957,"stimulus":"<p style=\"font-size: 48px; font-family: monospace;\">ANGRY</p>","key_press":37,"trial":"false","task":"face_practice_target","trial_type":"html-keyboard-response","trial_index":17,"time_elapsed":97607,"internal_node_id":"0.0-4.0-0.0-2.0-3.0","subject":"nmzxre6kplh8zth","correct":true},{"rt":3773.825000040233,"stimulus":"<p>Correct! The emotions do match!</p><br> Press the any key to continue to the next trial","key_press":37,"trial":"false","trial_type":"html-keyboard-response","trial_index":18,"time_elapsed":101383,"internal_node_id":"0.0-4.0-0.0-2.0-4.0","subject":"nmzxre6kplh8zth"},{"rt":null,"stimulus":"<div style=\"font-size:60px;\">+</div>","key_press":null,"trial":"false","test_part":"iti","trial_type":"html-keyboard-response","trial_index":19,"time_elapsed":102891,"internal_node_id":"0.0-4.0-1.0-0.0-0.0","subject":"nmzxre6kplh8zth"},{"rt":null,"stimulus":"audio/15_Bunkertor_7.mp3","key_press":null,"trial":"false","trial_type":"audio-keyboard-response","trial_index":20,"time_elapsed":103902,"internal_node_id":"0.0-4.0-1.0-0.0-1.0","subject":"nmzxre6kplh8zth"},{"rt":null,"stimulus":"<div style=\"font-size:60px;\">+</div>","key_press":null,"trial":"false","test_part":"isi","trial_type":"html-keyboard-response","trial_index":21,"time_elapsed":104112,"internal_node_id":"0.0-4.0-1.0-0.0-2.0","subject":"nmzxre6kplh8zth"},{"rt":1233.4000000264496,"stimulus":"img/AF06HAS.JPG","key_press":39,"trial":"false","task":"face_practice_target","trial_type":"image-keyboard-response","trial_index":22,"time_elapsed":105349,"internal_node_id":"0.0-4.0-1.0-0.0-3.0","subject":"nmzxre6kplh8zth","correct":true},{"rt":3344.5150000043213,"stimulus":"<p>Correct! The emotions do not match!</p><br> Press the any key to continue to the next trial","key_press":39,"trial":"false","trial_type":"html-keyboard-response","trial_index":23,"time_elapsed":108696,"internal_node_id":"0.0-4.0-1.0-0.0-4.0","subject":"nmzxre6kplh8zth"},{"rt":null,"stimulus":"<div style=\"font-size:60px;\">+</div>","key_press":null,"trial":"false","test_part":"iti","trial_type":"html-keyboard-response","trial_index":24,"time_elapsed":110201,"internal_node_id":"0.0-4.0-1.0-1.0-0.0","subject":"nmzxre6kplh8zth"},{"rt":null,"stimulus":"audio/15_Bunkertor_7.mp3","key_press":null,"trial":"false","trial_type":"audio-keyboard-response","trial_index":25,"time_elapsed":111206,"internal_node_id":"0.0-4.0-1.0-1.0-1.0","subject":"nmzxre6kplh8zth"},{"rt":null,"stimulus":"<div style=\"font-size:60px;\">+</div>","key_press":null,"trial":"false","test_part":"isi","trial_type":"html-keyboard-response","trial_index":26,"time_elapsed":111408,"internal_node_id":"0.0-4.0-1.0-1.0-2.0","subject":"nmzxre6kplh8zth"},{"rt":1864.034999976866,"stimulus":"img/BF05ANS.JPG","key_press":37,"trial":"false","task":"face_practice_target","trial_type":"image-keyboard-response","trial_index":27,"time_elapsed":113276,"internal_node_id":"0.0-4.0-1.0-1.0-3.0","subject":"nmzxre6kplh8zth","correct":true},{"rt":4770.509999943897,"stimulus":"<p>Correct! The emotions do match!</p><br> Press the any key to continue to the next trial","key_press":37,"trial":"false","trial_type":"html-keyboard-response","trial_index":28,"time_elapsed":118048,"internal_node_id":"0.0-4.0-1.0-1.0-4.0","subject":"nmzxre6kplh8zth"},{"rt":null,"stimulus":"<div style=\"font-size:60px;\">+</div>","key_press":null,"trial":"false","test_part":"iti","trial_type":"html-keyboard-response","trial_index":29,"time_elapsed":119561,"internal_node_id":"0.0-4.0-1.0-2.0-0.0","subject":"nmzxre6kplh8zth"},{"rt":null,"stimulus":"audio/15_Bunkertor_7.mp3","key_press":null,"trial":"false","trial_type":"audio-keyboard-response","trial_index":30,"time_elapsed":120575,"internal_node_id":"0.0-4.0-1.0-2.0-1.0","subject":"nmzxre6kplh8zth"},{"rt":null,"stimulus":"<div style=\"font-size:60px;\">+</div>","key_press":null,"trial":"false","test_part":"isi","trial_type":"html-keyboard-response","trial_index":31,"time_elapsed":120785,"internal_node_id":"0.0-4.0-1.0-2.0-2.0","subject":"nmzxre6kplh8zth"},{"rt":1163.8200000161305,"stimulus":"img/AM29SAS.JPG","key_press":39,"trial":"false","task":"face_practice_target","trial_type":"image-keyboard-response","trial_index":32,"time_elapsed":121953,"internal_node_id":"0.0-4.0-1.0-2.0-3.0","subject":"nmzxre6kplh8zth","correct":true},{"rt":3482.524999999441,"stimulus":"<p>Correct! The emotions do not match!</p><br> Press the any key to continue to the next trial","key_press":39,"trial":"false","trial_type":"html-keyboard-response","trial_index":33,"time_elapsed":125438,"internal_node_id":"0.0-4.0-1.0-2.0-4.0","subject":"nmzxre6kplh8zth"},{"rt":null,"stimulus":"<div style=\"font-size:60px;\">+</div>","key_press":null,"trial":"false","test_part":"iti","trial_type":"html-keyboard-response","trial_index":34,"time_elapsed":126945,"internal_node_id":"0.0-4.0-2.0-0.0-0.0","subject":"nmzxre6kplh8zth"},{"rt":null,"stimulus":"audio/15_Bunkertor_7.mp3","key_press":null,"trial":"false","trial_type":"audio-keyboard-response","trial_index":35,"time_elapsed":127956,"internal_node_id":"0.0-4.0-2.0-0.0-1.0","subject":"nmzxre6kplh8zth"},{"rt":null,"stimulus":"<div style=\"font-size:60px;\">+</div>","key_press":null,"trial":"false","test_part":"isi","trial_type":"html-keyboard-response","trial_index":36,"time_elapsed":128165,"internal_node_id":"0.0-4.0-2.0-0.0-2.0","subject":"nmzxre6kplh8zth"},{"rt":1881.4450000645593,"stimulus":"audio/2_Blood_On_The_Ground.mp3","key_press":39,"trial":"false","task":"song_practice_target","trial_type":"audio-keyboard-response","trial_index":37,"time_elapsed":130050,"internal_node_id":"0.0-4.0-2.0-0.0-3.0","subject":"nmzxre6kplh8zth","correct":false},{"rt":3912.6950000645593,"stimulus":"<p>That was incorrect.<br><br><strong><br> When the emotion is the same press the left arrow (&larr;) <br><br> when the emotions are different press the right arrow (&rarr;)</p></strong>Press the any key to continue to the next trial","key_press":37,"trial":"false","trial_type":"html-keyboard-response","trial_index":38,"time_elapsed":133965,"internal_node_id":"0.0-4.0-2.0-0.0-4.0","subject":"nmzxre6kplh8zth"},{"rt":null,"stimulus":"<div style=\"font-size:60px;\">+</div>","key_press":null,"trial":"false","test_part":"iti","trial_type":"html-keyboard-response","trial_index":39,"time_elapsed":135473,"internal_node_id":"0.0-4.0-2.0-1.0-0.0","subject":"nmzxre6kplh8zth"},{"rt":null,"stimulus":"audio/15_Bunkertor_7.mp3","key_press":null,"trial":"false","trial_type":"audio-keyboard-response","trial_index":40,"time_elapsed":136496,"internal_node_id":"0.0-4.0-2.0-1.0-1.0","subject":"nmzxre6kplh8zth"},{"rt":null,"stimulus":"<div style=\"font-size:60px;\">+</div>","key_press":null,"trial":"false","test_part":"isi","trial_type":"html-keyboard-response","trial_index":41,"time_elapsed":136703,"internal_node_id":"0.0-4.0-2.0-1.0-2.0","subject":"nmzxre6kplh8zth"},{"rt":986.3999999361113,"stimulus":"audio/4_Mbube.mp3","key_press":39,"trial":"false","task":"song_practice_target","trial_type":"audio-keyboard-response","trial_index":42,"time_elapsed":137693,"internal_node_id":"0.0-4.0-2.0-1.0-3.0","subject":"nmzxre6kplh8zth","correct":true},{"rt":4915.975000010803,"stimulus":"<p>Correct! The emotions do not match!</p><br> Press the any key to continue to the next trial","key_press":39,"trial":"false","trial_type":"html-keyboard-response","trial_index":43,"time_elapsed":142611,"internal_node_id":"0.0-4.0-2.0-1.0-4.0","subject":"nmzxre6kplh8zth"},{"rt":null,"stimulus":"<div style=\"font-size:60px;\">+</div>","key_press":null,"trial":"false","test_part":"iti","trial_type":"html-keyboard-response","trial_index":44,"time_elapsed":144125,"internal_node_id":"0.0-4.0-2.0-2.0-0.0","subject":"nmzxre6kplh8zth"},{"rt":null,"stimulus":"audio/15_Bunkertor_7.mp3","key_press":null,"trial":"false","trial_type":"audio-keyboard-response","trial_index":45,"time_elapsed":145134,"internal_node_id":"0.0-4.0-2.0-2.0-1.0","subject":"nmzxre6kplh8zth"},{"rt":null,"stimulus":"<div style=\"font-size:60px;\">+</div>","key_press":null,"trial":"false","test_part":"isi","trial_type":"html-keyboard-response","trial_index":46,"time_elapsed":145343,"internal_node_id":"0.0-4.0-2.0-2.0-2.0","subject":"nmzxre6kplh8zth"},{"rt":1063.2449999684468,"stimulus":"audio/3_It_Only_Hurts_When_I'm_Breathing.mp3","key_press":39,"trial":"false","task":"song_practice_target","trial_type":"audio-keyboard-response","trial_index":47,"time_elapsed":146411,"internal_node_id":"0.0-4.0-2.0-2.0-3.0","subject":"nmzxre6kplh8zth","correct":true},{"rt":5328.379999962635,"stimulus":"<p>Correct! The emotions do not match!</p><br> Press the any key to continue to the next trial","key_press":39,"trial":"false","trial_type":"html-keyboard-response","trial_index":48,"time_elapsed":151741,"internal_node_id":"0.0-4.0-2.0-2.0-4.0","subject":"nmzxre6kplh8zth"},{"rt":9561.089999973774,"stimulus":"<p>In this part of the experiment you will hear a short musical clip and then shortly after view a face</p><br><br><p><strong> If the emotion in the song and the face match then press the left arrow key (&larr;)</p><br><p>If the emotion in the song and the face do not match then press the right arrow key (&rarr;) </strong><p>Please be as quick and accurate as possible</p><p>Press the space bar to begin</p>","key_press":32,"block":"face","task":"instruction","trial_type":"html-keyboard-response","trial_index":49,"time_elapsed":161304,"internal_node_id":"0.0-5.0-0.0-0.0","subject":"nmzxre6kplh8zth"},{"rt":1459.830000065267,"stimulus":"static/img/instruct.jpg","key_press":37,"block":"face","trial_type":"image-keyboard-response","trial_index":50,"time_elapsed":162766,"internal_node_id":"0.0-5.0-0.0-1.0","subject":"nmzxre6kplh8zth"},{"rt":null,"stimulus":"<div style=\"font-size:60px;\">+</div>","key_press":null,"block":"face","trial":"false","test_part":"iti","trial_type":"html-keyboard-response","trial_index":51,"time_elapsed":164274,"internal_node_id":"0.0-5.0-0.0-2.0-0.0-0.0","subject":"nmzxre6kplh8zth"},{"rt":null,"stimulus":"audio/15_Bunkertor_7.mp3","key_press":null,"block":"face","trial":"false","trial_type":"audio-keyboard-response","trial_index":52,"time_elapsed":165284,"internal_node_id":"0.0-5.0-0.0-2.0-0.0-1.0","subject":"nmzxre6kplh8zth"},{"rt":null,"stimulus":"<div style=\"font-size:60px;\">+</div>","key_press":null,"block":"face","trial":"false","test_part":"isi","trial_type":"html-keyboard-response","trial_index":53,"time_elapsed":165493,"internal_node_id":"0.0-5.0-0.0-2.0-0.0-2.0","subject":"nmzxre6kplh8zth"},{"rt":740.0749999796972,"stimulus":"img/AF06HAS.JPG","key_press":39,"block":"face","trial":"false","task":"face_practice_target","trial_type":"image-keyboard-response","trial_index":54,"time_elapsed":166237,"internal_node_id":"0.0-5.0-0.0-2.0-0.0-3.0","subject":"nmzxre6kplh8zth","correct":true},{"rt":1813.1150000263005,"stimulus":"<p>Correct! The emotions do not match!</p><br> Press the any key to continue to the next trial","key_press":37,"block":"face","trial":"false","trial_type":"html-keyboard-response","trial_index":55,"time_elapsed":168053,"internal_node_id":"0.0-5.0-0.0-2.0-0.0-4.0","subject":"nmzxre6kplh8zth"},{"rt":null,"stimulus":"<div style=\"font-size:60px;\">+</div>","key_press":null,"block":"face","trial":"false","test_part":"iti","trial_type":"html-keyboard-response","trial_index":56,"time_elapsed":169563,"internal_node_id":"0.0-5.0-0.0-2.0-1.0-0.0","subject":"nmzxre6kplh8zth"},{"rt":null,"stimulus":"audio/15_Bunkertor_7.mp3","key_press":null,"block":"face","trial":"false","trial_type":"audio-keyboard-response","trial_index":57,"time_elapsed":170571,"internal_node_id":"0.0-5.0-0.0-2.0-1.0-1.0","subject":"nmzxre6kplh8zth"},{"rt":null,"stimulus":"<div style=\"font-size:60px;\">+</div>","key_press":null,"block":"face","trial":"false","test_part":"isi","trial_type":"html-keyboard-response","trial_index":58,"time_elapsed":170783,"internal_node_id":"0.0-5.0-0.0-2.0-1.0-2.0","subject":"nmzxre6kplh8zth"},{"rt":739.5549999782816,"stimulus":"img/BF05ANS.JPG","key_press":37,"block":"face","trial":"false","task":"face_practice_target","trial_type":"image-keyboard-response","trial_index":59,"time_elapsed":171526,"internal_node_id":"0.0-5.0-0.0-2.0-1.0-3.0","subject":"nmzxre6kplh8zth","correct":true},{"rt":5790.389999980107,"stimulus":"<p>Correct! The emotions do match!</p><br> Press the any key to continue to the next trial","key_press":37,"block":"face","trial":"false","trial_type":"html-keyboard-response","trial_index":60,"time_elapsed":177319,"internal_node_id":"0.0-5.0-0.0-2.0-1.0-4.0","subject":"nmzxre6kplh8zth"},{"rt":null,"stimulus":"<div style=\"font-size:60px;\">+</div>","key_press":null,"block":"face","trial":"false","test_part":"iti","trial_type":"html-keyboard-response","trial_index":61,"time_elapsed":178824,"internal_node_id":"0.0-5.0-0.0-2.0-2.0-0.0","subject":"nmzxre6kplh8zth"},{"rt":null,"stimulus":"audio/15_Bunkertor_7.mp3","key_press":null,"block":"face","trial":"false","trial_type":"audio-keyboard-response","trial_index":62,"time_elapsed":179834,"internal_node_id":"0.0-5.0-0.0-2.0-2.0-1.0","subject":"nmzxre6kplh8zth"},{"rt":null,"stimulus":"<div style=\"font-size:60px;\">+</div>","key_press":null,"block":"face","trial":"false","test_part":"isi","trial_type":"html-keyboard-response","trial_index":63,"time_elapsed":180042,"internal_node_id":"0.0-5.0-0.0-2.0-2.0-2.0","subject":"nmzxre6kplh8zth"},{"rt":720.560000045225,"stimulus":"img/AM29SAS.JPG","key_press":39,"block":"face","trial":"false","task":"face_practice_target","trial_type":"image-keyboard-response","trial_index":64,"time_elapsed":180764,"internal_node_id":"0.0-5.0-0.0-2.0-2.0-3.0","subject":"nmzxre6kplh8zth","correct":true},{"rt":2867.295000003651,"stimulus":"<p>Correct! The emotions do not match!</p><br> Press the any key to continue to the next trial","key_press":39,"block":"face","trial":"false","trial_type":"html-keyboard-response","trial_index":65,"time_elapsed":183634,"internal_node_id":"0.0-5.0-0.0-2.0-2.0-4.0","subject":"nmzxre6kplh8zth"},{"rt":2270.3449999680743,"stimulus":"The practice trials are now complete. Press the any key to begin the experimental trials","key_press":39,"block":"face","trial_type":"html-keyboard-response","trial_index":66,"time_elapsed":185906,"internal_node_id":"0.0-5.0-0.0-3.0","subject":"nmzxre6kplh8zth"},{"rt":null,"stimulus":"<div style=\"font-size:60px;\">+</div>","key_press":null,"block":"face","trial":"true","test_part":"iti","trial_type":"html-keyboard-response","trial_index":67,"time_elapsed":187410,"internal_node_id":"0.0-5.0-0.0-4.0-0.0","subject":"nmzxre6kplh8zth"},{"rt":null,"stimulus":"audio/5_Valerie.mp3","key_press":null,"block":"face","trial":"true","task":"cue","cue_song":"audio/5_Valerie.mp3","cue_emotion":"happy","trial_type":"audio-keyboard-response","trial_index":68,"time_elapsed":188421,"internal_node_id":"0.0-5.0-0.0-4.0-1.0","subject":"nmzxre6kplh8zth"},{"rt":null,"stimulus":"<div style=\"font-size:60px;\">+</div>","key_press":null,"block":"face","trial":"true","test_part":"isi","trial_type":"html-keyboard-response","trial_index":69,"time_elapsed":188630,"internal_node_id":"0.0-5.0-0.0-4.0-2.0","subject":"nmzxre6kplh8zth"},{"rt":963.3449999382719,"stimulus":"img/BF34ANS.JPG","key_press":39,"block":"face","trial":"true","task":"target","target_stimulus":"img/BF34ANS.JPG","target_emotion":"angry","condition":"incongruent","trial_type":"image-keyboard-response","trial_index":70,"time_elapsed":189597,"internal_node_id":"0.0-5.0-0.0-4.0-3.0","subject":"nmzxre6kplh8zth"},{"rt":null,"stimulus":"<div style=\"font-size:60px;\">+</div>","key_press":null,"block":"face","trial":"true","test_part":"iti","trial_type":"html-keyboard-response","trial_index":71,"time_elapsed":191110,"internal_node_id":"0.0-5.0-0.0-4.0-0.1","subject":"nmzxre6kplh8zth"},{"rt":null,"stimulus":"audio/5_Valerie.mp3","key_press":null,"block":"face","trial":"true","task":"cue","cue_song":"audio/5_Valerie.mp3","cue_emotion":"happy","trial_type":"audio-keyboard-response","trial_index":72,"time_elapsed":192121,"internal_node_id":"0.0-5.0-0.0-4.0-1.1","subject":"nmzxre6kplh8zth"},{"rt":null,"stimulus":"<div style=\"font-size:60px;\">+</div>","key_press":null,"block":"face","trial":"true","test_part":"isi","trial_type":"html-keyboard-response","trial_index":73,"time_elapsed":192329,"internal_node_id":"0.0-5.0-0.0-4.0-2.1","subject":"nmzxre6kplh8zth"},{"rt":629.5099999988452,"stimulus":"img/BM08SAS.JPG","key_press":39,"block":"face","trial":"true","task":"target","target_stimulus":"img/BM08SAS.JPG","target_emotion":"sad","condition":"incongruent","trial_type":"image-keyboard-response","trial_index":74,"time_elapsed":192962,"internal_node_id":"0.0-5.0-0.0-4.0-3.1","subject":"nmzxre6kplh8zth"},{"rt":null,"stimulus":"<div style=\"font-size:60px;\">+</div>","key_press":null,"block":"face","trial":"true","test_part":"iti","trial_type":"html-keyboard-response","trial_index":75,"time_elapsed":194469,"internal_node_id":"0.0-5.0-0.0-4.0-0.2","subject":"nmzxre6kplh8zth"},{"rt":null,"stimulus":"audio/1_Be_Happy.mp3","key_press":null,"block":"face","trial":"true","task":"cue","cue_song":"audio/1_Be_Happy.mp3","cue_emotion":"happy","trial_type":"audio-keyboard-response","trial_index":76,"time_elapsed":195481,"internal_node_id":"0.0-5.0-0.0-4.0-1.2","subject":"nmzxre6kplh8zth"},{"rt":null,"stimulus":"<div style=\"font-size:60px;\">+</div>","key_press":null,"block":"face","trial":"true","test_part":"isi","trial_type":"html-keyboard-response","trial_index":77,"time_elapsed":195690,"internal_node_id":"0.0-5.0-0.0-4.0-2.2","subject":"nmzxre6kplh8zth"},{"rt":540.6799999764189,"stimulus":"img/BM08HAS.JPG","key_press":37,"block":"face","trial":"true","task":"target","target_stimulus":"img/BM08HAS.JPG","target_emotion":"happy","condition":"congruent","trial_type":"image-keyboard-response","trial_index":78,"time_elapsed":196233,"internal_node_id":"0.0-5.0-0.0-4.0-3.2","subject":"nmzxre6kplh8zth"},{"rt":null,"stimulus":"<div style=\"font-size:60px;\">+</div>","key_press":null,"block":"face","trial":"true","test_part":"iti","trial_type":"html-keyboard-response","trial_index":79,"time_elapsed":197741,"internal_node_id":"0.0-5.0-0.0-4.0-0.3","subject":"nmzxre6kplh8zth"},{"rt":null,"stimulus":"audio/5_Valerie.mp3","key_press":null,"block":"face","trial":"true","task":"cue","cue_song":"audio/5_Valerie.mp3","cue_emotion":"happy","trial_type":"audio-keyboard-response","trial_index":80,"time_elapsed":198750,"internal_node_id":"0.0-5.0-0.0-4.0-1.3","subject":"nmzxre6kplh8zth"},{"rt":null,"stimulus":"<div style=\"font-size:60px;\">+</div>","key_press":null,"block":"face","trial":"true","test_part":"isi","trial_type":"html-keyboard-response","trial_index":81,"time_elapsed":198959,"internal_node_id":"0.0-5.0-0.0-4.0-2.3","subject":"nmzxre6kplh8zth"},{"rt":867.8099999669939,"stimulus":"img/BF34SAS.JPG","key_press":39,"block":"face","trial":"true","task":"target","target_stimulus":"img/BF34SAS.JPG","target_emotion":"sad","condition":"incongruent","trial_type":"image-keyboard-response","trial_index":82,"time_elapsed":199830,"internal_node_id":"0.0-5.0-0.0-4.0-3.3","subject":"nmzxre6kplh8zth"},{"rt":null,"stimulus":"<div style=\"font-size:60px;\">+</div>","key_press":null,"block":"face","trial":"true","test_part":"iti","trial_type":"html-keyboard-response","trial_index":83,"time_elapsed":201332,"internal_node_id":"0.0-5.0-0.0-4.0-0.4","subject":"nmzxre6kplh8zth"},{"rt":null,"stimulus":"audio/26_Make_Light.mp3","key_press":null,"block":"face","trial":"true","task":"cue","cue_song":"audio/26_Make_Light.mp3","cue_emotion":"happy","trial_type":"audio-keyboard-response","trial_index":84,"time_elapsed":202340,"internal_node_id":"0.0-5.0-0.0-4.0-1.4","subject":"nmzxre6kplh8zth"},{"rt":null,"stimulus":"<div style=\"font-size:60px;\">+</div>","key_press":null,"block":"face","trial":"true","test_part":"isi","trial_type":"html-keyboard-response","trial_index":85,"time_elapsed":202551,"internal_node_id":"0.0-5.0-0.0-4.0-2.4","subject":"nmzxre6kplh8zth"},{"rt":777.475000009872,"stimulus":"img/BM08SAS.JPG","key_press":39,"block":"face","trial":"true","task":"target","target_stimulus":"img/BM08SAS.JPG","target_emotion":"sad","condition":"incongruent","trial_type":"image-keyboard-response","trial_index":86,"time_elapsed":203331,"internal_node_id":"0.0-5.0-0.0-4.0-3.4","subject":"nmzxre6kplh8zth"},{"rt":null,"stimulus":"<div style=\"font-size:60px;\">+</div>","key_press":null,"block":"face","trial":"true","test_part":"iti","trial_type":"html-keyboard-response","trial_index":87,"time_elapsed":204840,"internal_node_id":"0.0-5.0-0.0-4.0-0.5","subject":"nmzxre6kplh8zth"},{"rt":null,"stimulus":"audio/2_Loves_Requiem.mp3","key_press":null,"block":"face","trial":"true","task":"cue","cue_song":"audio/2_Loves_Requiem.mp3","cue_emotion":"sad","trial_type":"audio-keyboard-response","trial_index":88,"time_elapsed":205850,"internal_node_id":"0.0-5.0-0.0-4.0-1.5","subject":"nmzxre6kplh8zth"},{"rt":null,"stimulus":"<div style=\"font-size:60px;\">+</div>","key_press":null,"block":"face","trial":"true","test_part":"isi","trial_type":"html-keyboard-response","trial_index":89,"time_elapsed":206060,"internal_node_id":"0.0-5.0-0.0-4.0-2.5","subject":"nmzxre6kplh8zth"},{"rt":1081.6049999557436,"stimulus":"img/BM08SAS.JPG","key_press":37,"block":"face","trial":"true","task":"target","target_stimulus":"img/BM08SAS.JPG","target_emotion":"sad","condition":"congruent","trial_type":"image-keyboard-response","trial_index":90,"time_elapsed":207144,"internal_node_id":"0.0-5.0-0.0-4.0-3.5","subject":"nmzxre6kplh8zth"},{"rt":null,"stimulus":"<div style=\"font-size:60px;\">+</div>","key_press":null,"block":"face","trial":"true","test_part":"iti","trial_type":"html-keyboard-response","trial_index":91,"time_elapsed":208651,"internal_node_id":"0.0-5.0-0.0-4.0-0.6","subject":"nmzxre6kplh8zth"},{"rt":null,"stimulus":"audio/3_Old_Blacktop.mp3","key_press":null,"block":"face","trial":"true","task":"cue","cue_song":"audio/3_Old_Blacktop.mp3","cue_emotion":"sad","trial_type":"audio-keyboard-response","trial_index":92,"time_elapsed":209660,"internal_node_id":"0.0-5.0-0.0-4.0-1.6","subject":"nmzxre6kplh8zth"},{"rt":null,"stimulus":"<div style=\"font-size:60px;\">+</div>","key_press":null,"block":"face","trial":"true","test_part":"isi","trial_type":"html-keyboard-response","trial_index":93,"time_elapsed":209869,"internal_node_id":"0.0-5.0-0.0-4.0-2.6","subject":"nmzxre6kplh8zth"},{"rt":1694.275000016205,"stimulus":"img/BM08ANS.JPG","key_press":37,"block":"face","trial":"true","task":"target","target_stimulus":"img/BM08ANS.JPG","target_emotion":"angry","condition":"incongruent","trial_type":"image-keyboard-response","trial_index":94,"time_elapsed":211567,"internal_node_id":"0.0-5.0-0.0-4.0-3.6","subject":"nmzxre6kplh8zth"},{"rt":null,"stimulus":"<div style=\"font-size:60px;\">+</div>","key_press":null,"block":"face","trial":"true","test_part":"iti","trial_type":"html-keyboard-response","trial_index":95,"time_elapsed":213070,"internal_node_id":"0.0-5.0-0.0-4.0-0.7","subject":"nmzxre6kplh8zth"},{"rt":null,"stimulus":"audio/1_Be_Happy.mp3","key_press":null,"block":"face","trial":"true","task":"cue","cue_song":"audio/1_Be_Happy.mp3","cue_emotion":"happy","trial_type":"audio-keyboard-response","trial_index":96,"time_elapsed":214081,"internal_node_id":"0.0-5.0-0.0-4.0-1.7","subject":"nmzxre6kplh8zth"},{"rt":null,"stimulus":"<div style=\"font-size:60px;\">+</div>","key_press":null,"block":"face","trial":"true","test_part":"isi","trial_type":"html-keyboard-response","trial_index":97,"time_elapsed":214289,"internal_node_id":"0.0-5.0-0.0-4.0-2.7","subject":"nmzxre6kplh8zth"},{"rt":625.7999999215826,"stimulus":"img/BM08SAS.JPG","key_press":39,"block":"face","trial":"true","task":"target","target_stimulus":"img/BM08SAS.JPG","target_emotion":"sad","condition":"incongruent","trial_type":"image-keyboard-response","trial_index":98,"time_elapsed":214918,"internal_node_id":"0.0-5.0-0.0-4.0-3.7","subject":"nmzxre6kplh8zth"},{"rt":null,"stimulus":"<div style=\"font-size:60px;\">+</div>","key_press":null,"block":"face","trial":"true","test_part":"iti","trial_type":"html-keyboard-response","trial_index":99,"time_elapsed":216421,"internal_node_id":"0.0-5.0-0.0-4.0-0.8","subject":"nmzxre6kplh8zth"},{"rt":null,"stimulus":"audio/12_Skinny_Love.mp3","key_press":null,"block":"face","trial":"true","task":"cue","cue_song":"audio/12_Skinny_Love.mp3","cue_emotion":"sad","trial_type":"audio-keyboard-response","trial_index":100,"time_elapsed":217430,"internal_node_id":"0.0-5.0-0.0-4.0-1.8","subject":"nmzxre6kplh8zth"},{"rt":null,"stimulus":"<div style=\"font-size:60px;\">+</div>","key_press":null,"block":"face","trial":"true","test_part":"isi","trial_type":"html-keyboard-response","trial_index":101,"time_elapsed":217639,"internal_node_id":"0.0-5.0-0.0-4.0-2.8","subject":"nmzxre6kplh8zth"},{"rt":728.0200000386685,"stimulus":"img/BF34ANS.JPG","key_press":39,"block":"face","trial":"true","task":"target","target_stimulus":"img/BF34ANS.JPG","target_emotion":"angry","condition":"incongruent","trial_type":"image-keyboard-response","trial_index":102,"time_elapsed":218370,"internal_node_id":"0.0-5.0-0.0-4.0-3.8","subject":"nmzxre6kplh8zth"},{"rt":null,"stimulus":"<div style=\"font-size:60px;\">+</div>","key_press":null,"block":"face","trial":"true","test_part":"iti","trial_type":"html-keyboard-response","trial_index":103,"time_elapsed":219879,"internal_node_id":"0.0-5.0-0.0-4.0-0.9","subject":"nmzxre6kplh8zth"},{"rt":null,"stimulus":"audio/2_Loves_Requiem.mp3","key_press":null,"block":"face","trial":"true","task":"cue","cue_song":"audio/2_Loves_Requiem.mp3","cue_emotion":"sad","trial_type":"audio-keyboard-response","trial_index":104,"time_elapsed":220890,"internal_node_id":"0.0-5.0-0.0-4.0-1.9","subject":"nmzxre6kplh8zth"},{"rt":null,"stimulus":"<div style=\"font-size:60px;\">+</div>","key_press":null,"block":"face","trial":"true","test_part":"isi","trial_type":"html-keyboard-response","trial_index":105,"time_elapsed":221099,"internal_node_id":"0.0-5.0-0.0-4.0-2.9","subject":"nmzxre6kplh8zth"},{"rt":800.9799999417737,"stimulus":"img/BF34HAS.JPG","key_press":39,"block":"face","trial":"true","task":"target","target_stimulus":"img/BF34HAS.JPG","target_emotion":"happy","condition":"incongruent","trial_type":"image-keyboard-response","trial_index":106,"time_elapsed":221903,"internal_node_id":"0.0-5.0-0.0-4.0-3.9","subject":"nmzxre6kplh8zth"},{"rt":null,"stimulus":"<div style=\"font-size:60px;\">+</div>","key_press":null,"block":"face","trial":"true","test_part":"iti","trial_type":"html-keyboard-response","trial_index":107,"time_elapsed":223410,"internal_node_id":"0.0-5.0-0.0-4.0-0.10","subject":"nmzxre6kplh8zth"},{"rt":null,"stimulus":"audio/26_Make_Light.mp3","key_press":null,"block":"face","trial":"true","task":"cue","cue_song":"audio/26_Make_Light.mp3","cue_emotion":"happy","trial_type":"audio-keyboard-response","trial_index":108,"time_elapsed":224420,"internal_node_id":"0.0-5.0-0.0-4.0-1.10","subject":"nmzxre6kplh8zth"},{"rt":null,"stimulus":"<div style=\"font-size:60px;\">+</div>","key_press":null,"block":"face","trial":"true","test_part":"isi","trial_type":"html-keyboard-response","trial_index":109,"time_elapsed":224630,"internal_node_id":"0.0-5.0-0.0-4.0-2.10","subject":"nmzxre6kplh8zth"},{"rt":683.4650000091642,"stimulus":"img/BF34ANS.JPG","key_press":39,"block":"face","trial":"true","task":"target","target_stimulus":"img/BF34ANS.JPG","target_emotion":"angry","condition":"incongruent","trial_type":"image-keyboard-response","trial_index":110,"time_elapsed":225316,"internal_node_id":"0.0-5.0-0.0-4.0-3.10","subject":"nmzxre6kplh8zth"},{"rt":null,"stimulus":"<div style=\"font-size:60px;\">+</div>","key_press":null,"block":"face","trial":"true","test_part":"iti","trial_type":"html-keyboard-response","trial_index":111,"time_elapsed":226829,"internal_node_id":"0.0-5.0-0.0-4.0-0.11","subject":"nmzxre6kplh8zth"},{"rt":null,"stimulus":"audio/2_Loves_Requiem.mp3","key_press":null,"block":"face","trial":"true","task":"cue","cue_song":"audio/2_Loves_Requiem.mp3","cue_emotion":"sad","trial_type":"audio-keyboard-response","trial_index":112,"time_elapsed":227840,"internal_node_id":"0.0-5.0-0.0-4.0-1.11","subject":"nmzxre6kplh8zth"},{"rt":null,"stimulus":"<div style=\"font-size:60px;\">+</div>","key_press":null,"block":"face","trial":"true","test_part":"isi","trial_type":"html-keyboard-response","trial_index":113,"time_elapsed":228049,"internal_node_id":"0.0-5.0-0.0-4.0-2.11","subject":"nmzxre6kplh8zth"},{"rt":939.7450000979006,"stimulus":"img/BM08ANS.JPG","key_press":37,"block":"face","trial":"true","task":"target","target_stimulus":"img/BM08ANS.JPG","target_emotion":"angry","condition":"incongruent","trial_type":"image-keyboard-response","trial_index":114,"time_elapsed":228992,"internal_node_id":"0.0-5.0-0.0-4.0-3.11","subject":"nmzxre6kplh8zth"},{"rt":null,"stimulus":"<div style=\"font-size:60px;\">+</div>","key_press":null,"block":"face","trial":"true","test_part":"iti","trial_type":"html-keyboard-response","trial_index":115,"time_elapsed":230499,"internal_node_id":"0.0-5.0-0.0-4.0-0.12","subject":"nmzxre6kplh8zth"},{"rt":null,"stimulus":"audio/2_Loves_Requiem.mp3","key_press":null,"block":"face","trial":"true","task":"cue","cue_song":"audio/2_Loves_Requiem.mp3","cue_emotion":"sad","trial_type":"audio-keyboard-response","trial_index":116,"time_elapsed":231504,"internal_node_id":"0.0-5.0-0.0-4.0-1.12","subject":"nmzxre6kplh8zth"},{"rt":null,"stimulus":"<div style=\"font-size:60px;\">+</div>","key_press":null,"block":"face","trial":"true","test_part":"isi","trial_type":"html-keyboard-response","trial_index":117,"time_elapsed":231709,"internal_node_id":"0.0-5.0-0.0-4.0-2.12","subject":"nmzxre6kplh8zth"},{"rt":670.200000051409,"stimulus":"img/BF34SAS.JPG","key_press":37,"block":"face","trial":"true","task":"target","target_stimulus":"img/BF34SAS.JPG","target_emotion":"sad","condition":"congruent","trial_type":"image-keyboard-response","trial_index":118,"time_elapsed":232383,"internal_node_id":"0.0-5.0-0.0-4.0-3.12","subject":"nmzxre6kplh8zth"},{"rt":null,"stimulus":"<div style=\"font-size:60px;\">+</div>","key_press":null,"block":"face","trial":"true","test_part":"iti","trial_type":"html-keyboard-response","trial_index":119,"time_elapsed":233900,"internal_node_id":"0.0-5.0-0.0-4.0-0.13","subject":"nmzxre6kplh8zth"},{"rt":null,"stimulus":"audio/1_Be_Happy.mp3","key_press":null,"block":"face","trial":"true","task":"cue","cue_song":"audio/1_Be_Happy.mp3","cue_emotion":"happy","trial_type":"audio-keyboard-response","trial_index":120,"time_elapsed":234911,"internal_node_id":"0.0-5.0-0.0-4.0-1.13","subject":"nmzxre6kplh8zth"},{"rt":null,"stimulus":"<div style=\"font-size:60px;\">+</div>","key_press":null,"block":"face","trial":"true","test_part":"isi","trial_type":"html-keyboard-response","trial_index":121,"time_elapsed":235122,"internal_node_id":"0.0-5.0-0.0-4.0-2.13","subject":"nmzxre6kplh8zth"},{"rt":614.4649999914691,"stimulus":"img/BF34ANS.JPG","key_press":39,"block":"face","trial":"true","task":"target","target_stimulus":"img/BF34ANS.JPG","target_emotion":"angry","condition":"incongruent","trial_type":"image-keyboard-response","trial_index":122,"time_elapsed":235739,"internal_node_id":"0.0-5.0-0.0-4.0-3.13","subject":"nmzxre6kplh8zth"},{"rt":null,"stimulus":"<div style=\"font-size:60px;\">+</div>","key_press":null,"block":"face","trial":"true","test_part":"iti","trial_type":"html-keyboard-response","trial_index":123,"time_elapsed":237249,"internal_node_id":"0.0-5.0-0.0-4.0-0.14","subject":"nmzxre6kplh8zth"},{"rt":null,"stimulus":"audio/5_Valerie.mp3","key_press":null,"block":"face","trial":"true","task":"cue","cue_song":"audio/5_Valerie.mp3","cue_emotion":"happy","trial_type":"audio-keyboard-response","trial_index":124,"time_elapsed":238260,"internal_node_id":"0.0-5.0-0.0-4.0-1.14","subject":"nmzxre6kplh8zth"},{"rt":null,"stimulus":"<div style=\"font-size:60px;\">+</div>","key_press":null,"block":"face","trial":"true","test_part":"isi","trial_type":"html-keyboard-response","trial_index":125,"time_elapsed":238470,"internal_node_id":"0.0-5.0-0.0-4.0-2.14","subject":"nmzxre6kplh8zth"},{"rt":831.5149999689311,"stimulus":"img/BM08ANS.JPG","key_press":39,"block":"face","trial":"true","task":"target","target_stimulus":"img/BM08ANS.JPG","target_emotion":"angry","condition":"incongruent","trial_type":"image-keyboard-response","trial_index":126,"time_elapsed":239305,"internal_node_id":"0.0-5.0-0.0-4.0-3.14","subject":"nmzxre6kplh8zth"},{"rt":null,"stimulus":"<div style=\"font-size:60px;\">+</div>","key_press":null,"block":"face","trial":"true","test_part":"iti","trial_type":"html-keyboard-response","trial_index":127,"time_elapsed":240813,"internal_node_id":"0.0-5.0-0.0-4.0-0.15","subject":"nmzxre6kplh8zth"},{"rt":null,"stimulus":"audio/3_Old_Blacktop.mp3","key_press":null,"block":"face","trial":"true","task":"cue","cue_song":"audio/3_Old_Blacktop.mp3","cue_emotion":"sad","trial_type":"audio-keyboard-response","trial_index":128,"time_elapsed":241824,"internal_node_id":"0.0-5.0-0.0-4.0-1.15","subject":"nmzxre6kplh8zth"},{"rt":null,"stimulus":"<div style=\"font-size:60px;\">+</div>","key_press":null,"block":"face","trial":"true","test_part":"isi","trial_type":"html-keyboard-response","trial_index":129,"time_elapsed":242034,"internal_node_id":"0.0-5.0-0.0-4.0-2.15","subject":"nmzxre6kplh8zth"},{"rt":501.56000000424683,"stimulus":"img/BF34SAS.JPG","key_press":37,"block":"face","trial":"true","task":"target","target_stimulus":"img/BF34SAS.JPG","target_emotion":"sad","condition":"congruent","trial_type":"image-keyboard-response","trial_index":130,"time_elapsed":242538,"internal_node_id":"0.0-5.0-0.0-4.0-3.15","subject":"nmzxre6kplh8zth"},{"rt":null,"stimulus":"<div style=\"font-size:60px;\">+</div>","key_press":null,"block":"face","trial":"true","test_part":"iti","trial_type":"html-keyboard-response","trial_index":131,"time_elapsed":244043,"internal_node_id":"0.0-5.0-0.0-4.0-0.16","subject":"nmzxre6kplh8zth"},{"rt":null,"stimulus":"audio/3_Old_Blacktop.mp3","key_press":null,"block":"face","trial":"true","task":"cue","cue_song":"audio/3_Old_Blacktop.mp3","cue_emotion":"sad","trial_type":"audio-keyboard-response","trial_index":132,"time_elapsed":245054,"internal_node_id":"0.0-5.0-0.0-4.0-1.16","subject":"nmzxre6kplh8zth"},{"rt":null,"stimulus":"<div style=\"font-size:60px;\">+</div>","key_press":null,"block":"face","trial":"true","test_part":"isi","trial_type":"html-keyboard-response","trial_index":133,"time_elapsed":245263,"internal_node_id":"0.0-5.0-0.0-4.0-2.16","subject":"nmzxre6kplh8zth"},{"rt":659.3799999682233,"stimulus":"img/BF34ANS.JPG","key_press":39,"block":"face","trial":"true","task":"target","target_stimulus":"img/BF34ANS.JPG","target_emotion":"angry","condition":"incongruent","trial_type":"image-keyboard-response","trial_index":134,"time_elapsed":245925,"internal_node_id":"0.0-5.0-0.0-4.0-3.16","subject":"nmzxre6kplh8zth"},{"rt":null,"stimulus":"<div style=\"font-size:60px;\">+</div>","key_press":null,"block":"face","trial":"true","test_part":"iti","trial_type":"html-keyboard-response","trial_index":135,"time_elapsed":247433,"internal_node_id":"0.0-5.0-0.0-4.0-0.17","subject":"nmzxre6kplh8zth"},{"rt":null,"stimulus":"audio/26_Make_Light.mp3","key_press":null,"block":"face","trial":"true","task":"cue","cue_song":"audio/26_Make_Light.mp3","cue_emotion":"happy","trial_type":"audio-keyboard-response","trial_index":136,"time_elapsed":248443,"internal_node_id":"0.0-5.0-0.0-4.0-1.17","subject":"nmzxre6kplh8zth"},{"rt":null,"stimulus":"<div style=\"font-size:60px;\">+</div>","key_press":null,"block":"face","trial":"true","test_part":"isi","trial_type":"html-keyboard-response","trial_index":137,"time_elapsed":248653,"internal_node_id":"0.0-5.0-0.0-4.0-2.17","subject":"nmzxre6kplh8zth"},{"rt":501.74500001594424,"stimulus":"img/BM08ANS.JPG","key_press":39,"block":"face","trial":"true","task":"target","target_stimulus":"img/BM08ANS.JPG","target_emotion":"angry","condition":"incongruent","trial_type":"image-keyboard-response","trial_index":138,"time_elapsed":249158,"internal_node_id":"0.0-5.0-0.0-4.0-3.17","subject":"nmzxre6kplh8zth"},{"rt":null,"stimulus":"<div style=\"font-size:60px;\">+</div>","key_press":null,"block":"face","trial":"true","test_part":"iti","trial_type":"html-keyboard-response","trial_index":139,"time_elapsed":250663,"internal_node_id":"0.0-5.0-0.0-4.0-0.18","subject":"nmzxre6kplh8zth"},{"rt":null,"stimulus":"audio/21_Skank_Down.mp3","key_press":null,"block":"face","trial":"true","task":"cue","cue_song":"audio/21_Skank_Down.mp3","cue_emotion":"happy","trial_type":"audio-keyboard-response","trial_index":140,"time_elapsed":251674,"internal_node_id":"0.0-5.0-0.0-4.0-1.18","subject":"nmzxre6kplh8zth"},{"rt":null,"stimulus":"<div style=\"font-size:60px;\">+</div>","key_press":null,"block":"face","trial":"true","test_part":"isi","trial_type":"html-keyboard-response","trial_index":141,"time_elapsed":251883,"internal_node_id":"0.0-5.0-0.0-4.0-2.18","subject":"nmzxre6kplh8zth"},{"rt":492.6800000248477,"stimulus":"img/BF34ANS.JPG","key_press":39,"block":"face","trial":"true","task":"target","target_stimulus":"img/BF34ANS.JPG","target_emotion":"angry","condition":"incongruent","trial_type":"image-keyboard-response","trial_index":142,"time_elapsed":252379,"internal_node_id":"0.0-5.0-0.0-4.0-3.18","subject":"nmzxre6kplh8zth"},{"rt":null,"stimulus":"<div style=\"font-size:60px;\">+</div>","key_press":null,"block":"face","trial":"true","test_part":"iti","trial_type":"html-keyboard-response","trial_index":143,"time_elapsed":253883,"internal_node_id":"0.0-5.0-0.0-4.0-0.19","subject":"nmzxre6kplh8zth"},{"rt":null,"stimulus":"audio/2_Loves_Requiem.mp3","key_press":null,"block":"face","trial":"true","task":"cue","cue_song":"audio/2_Loves_Requiem.mp3","cue_emotion":"sad","trial_type":"audio-keyboard-response","trial_index":144,"time_elapsed":254894,"internal_node_id":"0.0-5.0-0.0-4.0-1.19","subject":"nmzxre6kplh8zth"},{"rt":null,"stimulus":"<div style=\"font-size:60px;\">+</div>","key_press":null,"block":"face","trial":"true","test_part":"isi","trial_type":"html-keyboard-response","trial_index":145,"time_elapsed":255103,"internal_node_id":"0.0-5.0-0.0-4.0-2.19","subject":"nmzxre6kplh8zth"},{"rt":696.1749999318272,"stimulus":"img/BM08HAS.JPG","key_press":39,"block":"face","trial":"true","task":"target","target_stimulus":"img/BM08HAS.JPG","target_emotion":"happy","condition":"incongruent","trial_type":"image-keyboard-response","trial_index":146,"time_elapsed":255802,"internal_node_id":"0.0-5.0-0.0-4.0-3.19","subject":"nmzxre6kplh8zth"},{"rt":null,"stimulus":"<div style=\"font-size:60px;\">+</div>","key_press":null,"block":"face","trial":"true","test_part":"iti","trial_type":"html-keyboard-response","trial_index":147,"time_elapsed":257314,"internal_node_id":"0.0-5.0-0.0-4.0-0.20","subject":"nmzxre6kplh8zth"},{"rt":null,"stimulus":"audio/8_Fire_And_Rain__(LP_Version).mp3","key_press":null,"block":"face","trial":"true","task":"cue","cue_song":"audio/8_Fire_And_Rain__(LP_Version).mp3","cue_emotion":"sad","trial_type":"audio-keyboard-response","trial_index":148,"time_elapsed":258324,"internal_node_id":"0.0-5.0-0.0-4.0-1.20","subject":"nmzxre6kplh8zth"},{"rt":null,"stimulus":"<div style=\"font-size:60px;\">+</div>","key_press":null,"block":"face","trial":"true","test_part":"isi","trial_type":"html-keyboard-response","trial_index":149,"time_elapsed":258533,"internal_node_id":"0.0-5.0-0.0-4.0-2.20","subject":"nmzxre6kplh8zth"},{"rt":476.52500006370246,"stimulus":"img/BM08SAS.JPG","key_press":39,"block":"face","trial":"true","task":"target","target_stimulus":"img/BM08SAS.JPG","target_emotion":"sad","condition":"congruent","trial_type":"image-keyboard-response","trial_index":150,"time_elapsed":259013,"internal_node_id":"0.0-5.0-0.0-4.0-3.20","subject":"nmzxre6kplh8zth"},{"rt":null,"stimulus":"<div style=\"font-size:60px;\">+</div>","key_press":null,"block":"face","trial":"true","test_part":"iti","trial_type":"html-keyboard-response","trial_index":151,"time_elapsed":260523,"internal_node_id":"0.0-5.0-0.0-4.0-0.21","subject":"nmzxre6kplh8zth"},{"rt":null,"stimulus":"audio/3_Old_Blacktop.mp3","key_press":null,"block":"face","trial":"true","task":"cue","cue_song":"audio/3_Old_Blacktop.mp3","cue_emotion":"sad","trial_type":"audio-keyboard-response","trial_index":152,"time_elapsed":261528,"internal_node_id":"0.0-5.0-0.0-4.0-1.21","subject":"nmzxre6kplh8zth"},{"rt":null,"stimulus":"<div style=\"font-size:60px;\">+</div>","key_press":null,"block":"face","trial":"true","test_part":"isi","trial_type":"html-keyboard-response","trial_index":153,"time_elapsed":261733,"internal_node_id":"0.0-5.0-0.0-4.0-2.21","subject":"nmzxre6kplh8zth"},{"rt":468.76000007614493,"stimulus":"img/BF34HAS.JPG","key_press":39,"block":"face","trial":"true","task":"target","target_stimulus":"img/BF34HAS.JPG","target_emotion":"happy","condition":"incongruent","trial_type":"image-keyboard-response","trial_index":154,"time_elapsed":262205,"internal_node_id":"0.0-5.0-0.0-4.0-3.21","subject":"nmzxre6kplh8zth"},{"rt":null,"stimulus":"<div style=\"font-size:60px;\">+</div>","key_press":null,"block":"face","trial":"true","test_part":"iti","trial_type":"html-keyboard-response","trial_index":155,"time_elapsed":263713,"internal_node_id":"0.0-5.0-0.0-4.0-0.22","subject":"nmzxre6kplh8zth"},{"rt":null,"stimulus":"audio/1_Be_Happy.mp3","key_press":null,"block":"face","trial":"true","task":"cue","cue_song":"audio/1_Be_Happy.mp3","cue_emotion":"happy","trial_type":"audio-keyboard-response","trial_index":156,"time_elapsed":264724,"internal_node_id":"0.0-5.0-0.0-4.0-1.22","subject":"nmzxre6kplh8zth"},{"rt":null,"stimulus":"<div style=\"font-size:60px;\">+</div>","key_press":null,"block":"face","trial":"true","test_part":"isi","trial_type":"html-keyboard-response","trial_index":157,"time_elapsed":264933,"internal_node_id":"0.0-5.0-0.0-4.0-2.22","subject":"nmzxre6kplh8zth"},{"rt":575.1300000119954,"stimulus":"img/BF34SAS.JPG","key_press":39,"block":"face","trial":"true","task":"target","target_stimulus":"img/BF34SAS.JPG","target_emotion":"sad","condition":"incongruent","trial_type":"image-keyboard-response","trial_index":158,"time_elapsed":265511,"internal_node_id":"0.0-5.0-0.0-4.0-3.22","subject":"nmzxre6kplh8zth"},{"rt":null,"stimulus":"<div style=\"font-size:60px;\">+</div>","key_press":null,"block":"face","trial":"true","test_part":"iti","trial_type":"html-keyboard-response","trial_index":159,"time_elapsed":267014,"internal_node_id":"0.0-5.0-0.0-4.0-0.23","subject":"nmzxre6kplh8zth"},{"rt":null,"stimulus":"audio/12_Skinny_Love.mp3","key_press":null,"block":"face","trial":"true","task":"cue","cue_song":"audio/12_Skinny_Love.mp3","cue_emotion":"sad","trial_type":"audio-keyboard-response","trial_index":160,"time_elapsed":268025,"internal_node_id":"0.0-5.0-0.0-4.0-1.23","subject":"nmzxre6kplh8zth"},{"rt":null,"stimulus":"<div style=\"font-size:60px;\">+</div>","key_press":null,"block":"face","trial":"true","test_part":"isi","trial_type":"html-keyboard-response","trial_index":161,"time_elapsed":268234,"internal_node_id":"0.0-5.0-0.0-4.0-2.23","subject":"nmzxre6kplh8zth"},{"rt":534.6549999667332,"stimulus":"img/BM08HAS.JPG","key_press":39,"block":"face","trial":"true","task":"target","target_stimulus":"img/BM08HAS.JPG","target_emotion":"happy","condition":"incongruent","trial_type":"image-keyboard-response","trial_index":162,"time_elapsed":268771,"internal_node_id":"0.0-5.0-0.0-4.0-3.23","subject":"nmzxre6kplh8zth"},{"rt":null,"stimulus":"<div style=\"font-size:60px;\">+</div>","key_press":null,"block":"face","trial":"true","test_part":"iti","trial_type":"html-keyboard-response","trial_index":163,"time_elapsed":270283,"internal_node_id":"0.0-5.0-0.0-4.0-0.24","subject":"nmzxre6kplh8zth"},{"rt":null,"stimulus":"audio/8_Fire_And_Rain__(LP_Version).mp3","key_press":null,"block":"face","trial":"true","task":"cue","cue_song":"audio/8_Fire_And_Rain__(LP_Version).mp3","cue_emotion":"sad","trial_type":"audio-keyboard-response","trial_index":164,"time_elapsed":271295,"internal_node_id":"0.0-5.0-0.0-4.0-1.24","subject":"nmzxre6kplh8zth"},{"rt":null,"stimulus":"<div style=\"font-size:60px;\">+</div>","key_press":null,"block":"face","trial":"true","test_part":"isi","trial_type":"html-keyboard-response","trial_index":165,"time_elapsed":271497,"internal_node_id":"0.0-5.0-0.0-4.0-2.24","subject":"nmzxre6kplh8zth"},{"rt":826.1250000214204,"stimulus":"img/BM08ANS.JPG","key_press":39,"block":"face","trial":"true","task":"target","target_stimulus":"img/BM08ANS.JPG","target_emotion":"angry","condition":"incongruent","trial_type":"image-keyboard-response","trial_index":166,"time_elapsed":272326,"internal_node_id":"0.0-5.0-0.0-4.0-3.24","subject":"nmzxre6kplh8zth"},{"rt":null,"stimulus":"<div style=\"font-size:60px;\">+</div>","key_press":null,"block":"face","trial":"true","test_part":"iti","trial_type":"html-keyboard-response","trial_index":167,"time_elapsed":273833,"internal_node_id":"0.0-5.0-0.0-4.0-0.25","subject":"nmzxre6kplh8zth"},{"rt":null,"stimulus":"audio/26_Make_Light.mp3","key_press":null,"block":"face","trial":"true","task":"cue","cue_song":"audio/26_Make_Light.mp3","cue_emotion":"happy","trial_type":"audio-keyboard-response","trial_index":168,"time_elapsed":274843,"internal_node_id":"0.0-5.0-0.0-4.0-1.25","subject":"nmzxre6kplh8zth"},{"rt":null,"stimulus":"<div style=\"font-size:60px;\">+</div>","key_press":null,"block":"face","trial":"true","test_part":"isi","trial_type":"html-keyboard-response","trial_index":169,"time_elapsed":275053,"internal_node_id":"0.0-5.0-0.0-4.0-2.25","subject":"nmzxre6kplh8zth"},{"rt":495.0500000268221,"stimulus":"img/BF34SAS.JPG","key_press":39,"block":"face","trial":"true","task":"target","target_stimulus":"img/BF34SAS.JPG","target_emotion":"sad","condition":"incongruent","trial_type":"image-keyboard-response","trial_index":170,"time_elapsed":275550,"internal_node_id":"0.0-5.0-0.0-4.0-3.25","subject":"nmzxre6kplh8zth"},{"rt":null,"stimulus":"<div style=\"font-size:60px;\">+</div>","key_press":null,"block":"face","trial":"true","test_part":"iti","trial_type":"html-keyboard-response","trial_index":171,"time_elapsed":277063,"internal_node_id":"0.0-5.0-0.0-4.0-0.26","subject":"nmzxre6kplh8zth"},{"rt":null,"stimulus":"audio/21_Skank_Down.mp3","key_press":null,"block":"face","trial":"true","task":"cue","cue_song":"audio/21_Skank_Down.mp3","cue_emotion":"happy","trial_type":"audio-keyboard-response","trial_index":172,"time_elapsed":278074,"internal_node_id":"0.0-5.0-0.0-4.0-1.26","subject":"nmzxre6kplh8zth"},{"rt":null,"stimulus":"<div style=\"font-size:60px;\">+</div>","key_press":null,"block":"face","trial":"true","test_part":"isi","trial_type":"html-keyboard-response","trial_index":173,"time_elapsed":278283,"internal_node_id":"0.0-5.0-0.0-4.0-2.26","subject":"nmzxre6kplh8zth"},{"rt":513.9749998925254,"stimulus":"img/BM08SAS.JPG","key_press":39,"block":"face","trial":"true","task":"target","target_stimulus":"img/BM08SAS.JPG","target_emotion":"sad","condition":"incongruent","trial_type":"image-keyboard-response","trial_index":174,"time_elapsed":278800,"internal_node_id":"0.0-5.0-0.0-4.0-3.26","subject":"nmzxre6kplh8zth"},{"rt":null,"stimulus":"<div style=\"font-size:60px;\">+</div>","key_press":null,"block":"face","trial":"true","test_part":"iti","trial_type":"html-keyboard-response","trial_index":175,"time_elapsed":280304,"internal_node_id":"0.0-5.0-0.0-4.0-0.27","subject":"nmzxre6kplh8zth"},{"rt":null,"stimulus":"audio/3_Old_Blacktop.mp3","key_press":null,"block":"face","trial":"true","task":"cue","cue_song":"audio/3_Old_Blacktop.mp3","cue_emotion":"sad","trial_type":"audio-keyboard-response","trial_index":176,"time_elapsed":281312,"internal_node_id":"0.0-5.0-0.0-4.0-1.27","subject":"nmzxre6kplh8zth"},{"rt":null,"stimulus":"<div style=\"font-size:60px;\">+</div>","key_press":null,"block":"face","trial":"true","test_part":"isi","trial_type":"html-keyboard-response","trial_index":177,"time_elapsed":281514,"internal_node_id":"0.0-5.0-0.0-4.0-2.27","subject":"nmzxre6kplh8zth"},{"rt":520.6799999577925,"stimulus":"img/BM08SAS.JPG","key_press":37,"block":"face","trial":"true","task":"target","target_stimulus":"img/BM08SAS.JPG","target_emotion":"sad","condition":"congruent","trial_type":"image-keyboard-response","trial_index":178,"time_elapsed":282037,"internal_node_id":"0.0-5.0-0.0-4.0-3.27","subject":"nmzxre6kplh8zth"},{"rt":null,"stimulus":"<div style=\"font-size:60px;\">+</div>","key_press":null,"block":"face","trial":"true","test_part":"iti","trial_type":"html-keyboard-response","trial_index":179,"time_elapsed":283543,"internal_node_id":"0.0-5.0-0.0-4.0-0.28","subject":"nmzxre6kplh8zth"},{"rt":null,"stimulus":"audio/8_Fire_And_Rain__(LP_Version).mp3","key_press":null,"block":"face","trial":"true","task":"cue","cue_song":"audio/8_Fire_And_Rain__(LP_Version).mp3","cue_emotion":"sad","trial_type":"audio-keyboard-response","trial_index":180,"time_elapsed":284564,"internal_node_id":"0.0-5.0-0.0-4.0-1.28","subject":"nmzxre6kplh8zth"},{"rt":null,"stimulus":"<div style=\"font-size:60px;\">+</div>","key_press":null,"block":"face","trial":"true","test_part":"isi","trial_type":"html-keyboard-response","trial_index":181,"time_elapsed":284783,"internal_node_id":"0.0-5.0-0.0-4.0-2.28","subject":"nmzxre6kplh8zth"},{"rt":645.284999976866,"stimulus":"img/BM08HAS.JPG","key_press":39,"block":"face","trial":"true","task":"target","target_stimulus":"img/BM08HAS.JPG","target_emotion":"happy","condition":"incongruent","trial_type":"image-keyboard-response","trial_index":182,"time_elapsed":285431,"internal_node_id":"0.0-5.0-0.0-4.0-3.28","subject":"nmzxre6kplh8zth"},{"rt":null,"stimulus":"<div style=\"font-size:60px;\">+</div>","key_press":null,"block":"face","trial":"true","test_part":"iti","trial_type":"html-keyboard-response","trial_index":183,"time_elapsed":286954,"internal_node_id":"0.0-5.0-0.0-4.0-0.29","subject":"nmzxre6kplh8zth"},{"rt":null,"stimulus":"audio/21_Skank_Down.mp3","key_press":null,"block":"face","trial":"true","task":"cue","cue_song":"audio/21_Skank_Down.mp3","cue_emotion":"happy","trial_type":"audio-keyboard-response","trial_index":184,"time_elapsed":287963,"internal_node_id":"0.0-5.0-0.0-4.0-1.29","subject":"nmzxre6kplh8zth"},{"rt":null,"stimulus":"<div style=\"font-size:60px;\">+</div>","key_press":null,"block":"face","trial":"true","test_part":"isi","trial_type":"html-keyboard-response","trial_index":185,"time_elapsed":288173,"internal_node_id":"0.0-5.0-0.0-4.0-2.29","subject":"nmzxre6kplh8zth"},{"rt":622.8699999628589,"stimulus":"img/BM08HAS.JPG","key_press":37,"block":"face","trial":"true","task":"target","target_stimulus":"img/BM08HAS.JPG","target_emotion":"happy","condition":"congruent","trial_type":"image-keyboard-response","trial_index":186,"time_elapsed":288798,"internal_node_id":"0.0-5.0-0.0-4.0-3.29","subject":"nmzxre6kplh8zth"},{"rt":null,"stimulus":"<div style=\"font-size:60px;\">+</div>","key_press":null,"block":"face","trial":"true","test_part":"iti","trial_type":"html-keyboard-response","trial_index":187,"time_elapsed":290303,"internal_node_id":"0.0-5.0-0.0-4.0-0.30","subject":"nmzxre6kplh8zth"},{"rt":null,"stimulus":"audio/12_Skinny_Love.mp3","key_press":null,"block":"face","trial":"true","task":"cue","cue_song":"audio/12_Skinny_Love.mp3","cue_emotion":"sad","trial_type":"audio-keyboard-response","trial_index":188,"time_elapsed":291316,"internal_node_id":"0.0-5.0-0.0-4.0-1.30","subject":"nmzxre6kplh8zth"},{"rt":null,"stimulus":"<div style=\"font-size:60px;\">+</div>","key_press":null,"block":"face","trial":"true","test_part":"isi","trial_type":"html-keyboard-response","trial_index":189,"time_elapsed":291517,"internal_node_id":"0.0-5.0-0.0-4.0-2.30","subject":"nmzxre6kplh8zth"},{"rt":1077.4700000183657,"stimulus":"img/BM08ANS.JPG","key_press":39,"block":"face","trial":"true","task":"target","target_stimulus":"img/BM08ANS.JPG","target_emotion":"angry","condition":"incongruent","trial_type":"image-keyboard-response","trial_index":190,"time_elapsed":292598,"internal_node_id":"0.0-5.0-0.0-4.0-3.30","subject":"nmzxre6kplh8zth"},{"rt":null,"stimulus":"<div style=\"font-size:60px;\">+</div>","key_press":null,"block":"face","trial":"true","test_part":"iti","trial_type":"html-keyboard-response","trial_index":191,"time_elapsed":294103,"internal_node_id":"0.0-5.0-0.0-4.0-0.31","subject":"nmzxre6kplh8zth"},{"rt":null,"stimulus":"audio/21_Skank_Down.mp3","key_press":null,"block":"face","trial":"true","task":"cue","cue_song":"audio/21_Skank_Down.mp3","cue_emotion":"happy","trial_type":"audio-keyboard-response","trial_index":192,"time_elapsed":295114,"internal_node_id":"0.0-5.0-0.0-4.0-1.31","subject":"nmzxre6kplh8zth"},{"rt":null,"stimulus":"<div style=\"font-size:60px;\">+</div>","key_press":null,"block":"face","trial":"true","test_part":"isi","trial_type":"html-keyboard-response","trial_index":193,"time_elapsed":295324,"internal_node_id":"0.0-5.0-0.0-4.0-2.31","subject":"nmzxre6kplh8zth"},{"rt":505.69000001996756,"stimulus":"img/BF34SAS.JPG","key_press":39,"block":"face","trial":"true","task":"target","target_stimulus":"img/BF34SAS.JPG","target_emotion":"sad","condition":"incongruent","trial_type":"image-keyboard-response","trial_index":194,"time_elapsed":295833,"internal_node_id":"0.0-5.0-0.0-4.0-3.31","subject":"nmzxre6kplh8zth"},{"rt":null,"stimulus":"<div style=\"font-size:60px;\">+</div>","key_press":null,"block":"face","trial":"true","test_part":"iti","trial_type":"html-keyboard-response","trial_index":195,"time_elapsed":297343,"internal_node_id":"0.0-5.0-0.0-4.0-0.32","subject":"nmzxre6kplh8zth"},{"rt":null,"stimulus":"audio/8_Fire_And_Rain__(LP_Version).mp3","key_press":null,"block":"face","trial":"true","task":"cue","cue_song":"audio/8_Fire_And_Rain__(LP_Version).mp3","cue_emotion":"sad","trial_type":"audio-keyboard-response","trial_index":196,"time_elapsed":298353,"internal_node_id":"0.0-5.0-0.0-4.0-1.32","subject":"nmzxre6kplh8zth"},{"rt":null,"stimulus":"<div style=\"font-size:60px;\">+</div>","key_press":null,"block":"face","trial":"true","test_part":"isi","trial_type":"html-keyboard-response","trial_index":197,"time_elapsed":298563,"internal_node_id":"0.0-5.0-0.0-4.0-2.32","subject":"nmzxre6kplh8zth"},{"rt":709.4349999679253,"stimulus":"img/BF34HAS.JPG","key_press":39,"block":"face","trial":"true","task":"target","target_stimulus":"img/BF34HAS.JPG","target_emotion":"happy","condition":"incongruent","trial_type":"image-keyboard-response","trial_index":198,"time_elapsed":299276,"internal_node_id":"0.0-5.0-0.0-4.0-3.32","subject":"nmzxre6kplh8zth"},{"rt":null,"stimulus":"<div style=\"font-size:60px;\">+</div>","key_press":null,"block":"face","trial":"true","test_part":"iti","trial_type":"html-keyboard-response","trial_index":199,"time_elapsed":300782,"internal_node_id":"0.0-5.0-0.0-4.0-0.33","subject":"nmzxre6kplh8zth"},{"rt":null,"stimulus":"audio/21_Skank_Down.mp3","key_press":null,"block":"face","trial":"true","task":"cue","cue_song":"audio/21_Skank_Down.mp3","cue_emotion":"happy","trial_type":"audio-keyboard-response","trial_index":200,"time_elapsed":301793,"internal_node_id":"0.0-5.0-0.0-4.0-1.33","subject":"nmzxre6kplh8zth"},{"rt":null,"stimulus":"<div style=\"font-size:60px;\">+</div>","key_press":null,"block":"face","trial":"true","test_part":"isi","trial_type":"html-keyboard-response","trial_index":201,"time_elapsed":302002,"internal_node_id":"0.0-5.0-0.0-4.0-2.33","subject":"nmzxre6kplh8zth"},{"rt":903.8500000024214,"stimulus":"img/BF34HAS.JPG","key_press":39,"block":"face","trial":"true","task":"target","target_stimulus":"img/BF34HAS.JPG","target_emotion":"happy","condition":"congruent","trial_type":"image-keyboard-response","trial_index":202,"time_elapsed":302909,"internal_node_id":"0.0-5.0-0.0-4.0-3.33","subject":"nmzxre6kplh8zth"},{"rt":null,"stimulus":"<div style=\"font-size:60px;\">+</div>","key_press":null,"block":"face","trial":"true","test_part":"iti","trial_type":"html-keyboard-response","trial_index":203,"time_elapsed":304412,"internal_node_id":"0.0-5.0-0.0-4.0-0.34","subject":"nmzxre6kplh8zth"},{"rt":null,"stimulus":"audio/12_Skinny_Love.mp3","key_press":null,"block":"face","trial":"true","task":"cue","cue_song":"audio/12_Skinny_Love.mp3","cue_emotion":"sad","trial_type":"audio-keyboard-response","trial_index":204,"time_elapsed":305423,"internal_node_id":"0.0-5.0-0.0-4.0-1.34","subject":"nmzxre6kplh8zth"},{"rt":null,"stimulus":"<div style=\"font-size:60px;\">+</div>","key_press":null,"block":"face","trial":"true","test_part":"isi","trial_type":"html-keyboard-response","trial_index":205,"time_elapsed":305632,"internal_node_id":"0.0-5.0-0.0-4.0-2.34","subject":"nmzxre6kplh8zth"},{"rt":992.6850000629202,"stimulus":"img/BF34HAS.JPG","key_press":39,"block":"face","trial":"true","task":"target","target_stimulus":"img/BF34HAS.JPG","target_emotion":"happy","condition":"incongruent","trial_type":"image-keyboard-response","trial_index":206,"time_elapsed":306628,"internal_node_id":"0.0-5.0-0.0-4.0-3.34","subject":"nmzxre6kplh8zth"},{"rt":null,"stimulus":"<div style=\"font-size:60px;\">+</div>","key_press":null,"block":"face","trial":"true","test_part":"iti","trial_type":"html-keyboard-response","trial_index":207,"time_elapsed":308132,"internal_node_id":"0.0-5.0-0.0-4.0-0.35","subject":"nmzxre6kplh8zth"},{"rt":null,"stimulus":"audio/2_Loves_Requiem.mp3","key_press":null,"block":"face","trial":"true","task":"cue","cue_song":"audio/2_Loves_Requiem.mp3","cue_emotion":"sad","trial_type":"audio-keyboard-response","trial_index":208,"time_elapsed":309141,"internal_node_id":"0.0-5.0-0.0-4.0-1.35","subject":"nmzxre6kplh8zth"},{"rt":null,"stimulus":"<div style=\"font-size:60px;\">+</div>","key_press":null,"block":"face","trial":"true","test_part":"isi","trial_type":"html-keyboard-response","trial_index":209,"time_elapsed":309351,"internal_node_id":"0.0-5.0-0.0-4.0-2.35","subject":"nmzxre6kplh8zth"},{"rt":2065.4149999609217,"stimulus":"img/BF34ANS.JPG","key_press":37,"block":"face","trial":"true","task":"target","target_stimulus":"img/BF34ANS.JPG","target_emotion":"angry","condition":"incongruent","trial_type":"image-keyboard-response","trial_index":210,"time_elapsed":311420,"internal_node_id":"0.0-5.0-0.0-4.0-3.35","subject":"nmzxre6kplh8zth"},{"rt":null,"stimulus":"<div style=\"font-size:60px;\">+</div>","key_press":null,"block":"face","trial":"true","test_part":"iti","trial_type":"html-keyboard-response","trial_index":211,"time_elapsed":312932,"internal_node_id":"0.0-5.0-0.0-4.0-0.36","subject":"nmzxre6kplh8zth"},{"rt":null,"stimulus":"audio/1_Be_Happy.mp3","key_press":null,"block":"face","trial":"true","task":"cue","cue_song":"audio/1_Be_Happy.mp3","cue_emotion":"happy","trial_type":"audio-keyboard-response","trial_index":212,"time_elapsed":313942,"internal_node_id":"0.0-5.0-0.0-4.0-1.36","subject":"nmzxre6kplh8zth"},{"rt":null,"stimulus":"<div style=\"font-size:60px;\">+</div>","key_press":null,"block":"face","trial":"true","test_part":"isi","trial_type":"html-keyboard-response","trial_index":213,"time_elapsed":314153,"internal_node_id":"0.0-5.0-0.0-4.0-2.36","subject":"nmzxre6kplh8zth"},{"rt":985.9150000847876,"stimulus":"img/BF34HAS.JPG","key_press":37,"block":"face","trial":"true","task":"target","target_stimulus":"img/BF34HAS.JPG","target_emotion":"happy","condition":"congruent","trial_type":"image-keyboard-response","trial_index":214,"time_elapsed":315141,"internal_node_id":"0.0-5.0-0.0-4.0-3.36","subject":"nmzxre6kplh8zth"},{"rt":null,"stimulus":"<div style=\"font-size:60px;\">+</div>","key_press":null,"block":"face","trial":"true","test_part":"iti","trial_type":"html-keyboard-response","trial_index":215,"time_elapsed":316643,"internal_node_id":"0.0-5.0-0.0-4.0-0.37","subject":"nmzxre6kplh8zth"},{"rt":null,"stimulus":"audio/1_Be_Happy.mp3","key_press":null,"block":"face","trial":"true","task":"cue","cue_song":"audio/1_Be_Happy.mp3","cue_emotion":"happy","trial_type":"audio-keyboard-response","trial_index":216,"time_elapsed":317652,"internal_node_id":"0.0-5.0-0.0-4.0-1.37","subject":"nmzxre6kplh8zth"},{"rt":null,"stimulus":"<div style=\"font-size:60px;\">+</div>","key_press":null,"block":"face","trial":"true","test_part":"isi","trial_type":"html-keyboard-response","trial_index":217,"time_elapsed":317862,"internal_node_id":"0.0-5.0-0.0-4.0-2.37","subject":"nmzxre6kplh8zth"},{"rt":534.1100000077859,"stimulus":"img/BM08ANS.JPG","key_press":39,"block":"face","trial":"true","task":"target","target_stimulus":"img/BM08ANS.JPG","target_emotion":"angry","condition":"incongruent","trial_type":"image-keyboard-response","trial_index":218,"time_elapsed":318399,"internal_node_id":"0.0-5.0-0.0-4.0-3.37","subject":"nmzxre6kplh8zth"},{"rt":null,"stimulus":"<div style=\"font-size:60px;\">+</div>","key_press":null,"block":"face","trial":"true","test_part":"iti","trial_type":"html-keyboard-response","trial_index":219,"time_elapsed":319911,"internal_node_id":"0.0-5.0-0.0-4.0-0.38","subject":"nmzxre6kplh8zth"},{"rt":null,"stimulus":"audio/26_Make_Light.mp3","key_press":null,"block":"face","trial":"true","task":"cue","cue_song":"audio/26_Make_Light.mp3","cue_emotion":"happy","trial_type":"audio-keyboard-response","trial_index":220,"time_elapsed":320923,"internal_node_id":"0.0-5.0-0.0-4.0-1.38","subject":"nmzxre6kplh8zth"},{"rt":null,"stimulus":"<div style=\"font-size:60px;\">+</div>","key_press":null,"block":"face","trial":"true","test_part":"isi","trial_type":"html-keyboard-response","trial_index":221,"time_elapsed":321132,"internal_node_id":"0.0-5.0-0.0-4.0-2.38","subject":"nmzxre6kplh8zth"},{"rt":629.5399999944493,"stimulus":"img/BF34HAS.JPG","key_press":37,"block":"face","trial":"true","task":"target","target_stimulus":"img/BF34HAS.JPG","target_emotion":"happy","condition":"congruent","trial_type":"image-keyboard-response","trial_index":222,"time_elapsed":321764,"internal_node_id":"0.0-5.0-0.0-4.0-3.38","subject":"nmzxre6kplh8zth"},{"rt":null,"stimulus":"<div style=\"font-size:60px;\">+</div>","key_press":null,"block":"face","trial":"true","test_part":"iti","trial_type":"html-keyboard-response","trial_index":223,"time_elapsed":323271,"internal_node_id":"0.0-5.0-0.0-4.0-0.39","subject":"nmzxre6kplh8zth"},{"rt":null,"stimulus":"audio/8_Fire_And_Rain__(LP_Version).mp3","key_press":null,"block":"face","trial":"true","task":"cue","cue_song":"audio/8_Fire_And_Rain__(LP_Version).mp3","cue_emotion":"sad","trial_type":"audio-keyboard-response","trial_index":224,"time_elapsed":324282,"internal_node_id":"0.0-5.0-0.0-4.0-1.39","subject":"nmzxre6kplh8zth"},{"rt":null,"stimulus":"<div style=\"font-size:60px;\">+</div>","key_press":null,"block":"face","trial":"true","test_part":"isi","trial_type":"html-keyboard-response","trial_index":225,"time_elapsed":324491,"internal_node_id":"0.0-5.0-0.0-4.0-2.39","subject":"nmzxre6kplh8zth"},{"rt":1055.7100001024082,"stimulus":"img/BF34SAS.JPG","key_press":37,"block":"face","trial":"true","task":"target","target_stimulus":"img/BF34SAS.JPG","target_emotion":"sad","condition":"congruent","trial_type":"image-keyboard-response","trial_index":226,"time_elapsed":325550,"internal_node_id":"0.0-5.0-0.0-4.0-3.39","subject":"nmzxre6kplh8zth"},{"rt":null,"stimulus":"<div style=\"font-size:60px;\">+</div>","key_press":null,"block":"face","trial":"true","test_part":"iti","trial_type":"html-keyboard-response","trial_index":227,"time_elapsed":327061,"internal_node_id":"0.0-5.0-0.0-4.0-0.40","subject":"nmzxre6kplh8zth"},{"rt":null,"stimulus":"audio/5_Valerie.mp3","key_press":null,"block":"face","trial":"true","task":"cue","cue_song":"audio/5_Valerie.mp3","cue_emotion":"happy","trial_type":"audio-keyboard-response","trial_index":228,"time_elapsed":328073,"internal_node_id":"0.0-5.0-0.0-4.0-1.40","subject":"nmzxre6kplh8zth"},{"rt":null,"stimulus":"<div style=\"font-size:60px;\">+</div>","key_press":null,"block":"face","trial":"true","test_part":"isi","trial_type":"html-keyboard-response","trial_index":229,"time_elapsed":328282,"internal_node_id":"0.0-5.0-0.0-4.0-2.40","subject":"nmzxre6kplh8zth"},{"rt":771.0499999811873,"stimulus":"img/BM08HAS.JPG","key_press":37,"block":"face","trial":"true","task":"target","target_stimulus":"img/BM08HAS.JPG","target_emotion":"happy","condition":"congruent","trial_type":"image-keyboard-response","trial_index":230,"time_elapsed":329055,"internal_node_id":"0.0-5.0-0.0-4.0-3.40","subject":"nmzxre6kplh8zth"},{"rt":null,"stimulus":"<div style=\"font-size:60px;\">+</div>","key_press":null,"block":"face","trial":"true","test_part":"iti","trial_type":"html-keyboard-response","trial_index":231,"time_elapsed":330562,"internal_node_id":"0.0-5.0-0.0-4.0-0.41","subject":"nmzxre6kplh8zth"},{"rt":null,"stimulus":"audio/3_Old_Blacktop.mp3","key_press":null,"block":"face","trial":"true","task":"cue","cue_song":"audio/3_Old_Blacktop.mp3","cue_emotion":"sad","trial_type":"audio-keyboard-response","trial_index":232,"time_elapsed":331566,"internal_node_id":"0.0-5.0-0.0-4.0-1.41","subject":"nmzxre6kplh8zth"},{"rt":null,"stimulus":"<div style=\"font-size:60px;\">+</div>","key_press":null,"block":"face","trial":"true","test_part":"isi","trial_type":"html-keyboard-response","trial_index":233,"time_elapsed":331773,"internal_node_id":"0.0-5.0-0.0-4.0-2.41","subject":"nmzxre6kplh8zth"},{"rt":542.4900000216439,"stimulus":"img/BM08HAS.JPG","key_press":39,"block":"face","trial":"true","task":"target","target_stimulus":"img/BM08HAS.JPG","target_emotion":"happy","condition":"incongruent","trial_type":"image-keyboard-response","trial_index":234,"time_elapsed":332318,"internal_node_id":"0.0-5.0-0.0-4.0-3.41","subject":"nmzxre6kplh8zth"},{"rt":null,"stimulus":"<div style=\"font-size:60px;\">+</div>","key_press":null,"block":"face","trial":"true","test_part":"iti","trial_type":"html-keyboard-response","trial_index":235,"time_elapsed":333821,"internal_node_id":"0.0-5.0-0.0-4.0-0.42","subject":"nmzxre6kplh8zth"},{"rt":null,"stimulus":"audio/12_Skinny_Love.mp3","key_press":null,"block":"face","trial":"true","task":"cue","cue_song":"audio/12_Skinny_Love.mp3","cue_emotion":"sad","trial_type":"audio-keyboard-response","trial_index":236,"time_elapsed":334845,"internal_node_id":"0.0-5.0-0.0-4.0-1.42","subject":"nmzxre6kplh8zth"},{"rt":null,"stimulus":"<div style=\"font-size:60px;\">+</div>","key_press":null,"block":"face","trial":"true","test_part":"isi","trial_type":"html-keyboard-response","trial_index":237,"time_elapsed":335051,"internal_node_id":"0.0-5.0-0.0-4.0-2.42","subject":"nmzxre6kplh8zth"},{"rt":446.8949999427423,"stimulus":"img/BF34SAS.JPG","key_press":37,"block":"face","trial":"true","task":"target","target_stimulus":"img/BF34SAS.JPG","target_emotion":"sad","condition":"congruent","trial_type":"image-keyboard-response","trial_index":238,"time_elapsed":335501,"internal_node_id":"0.0-5.0-0.0-4.0-3.42","subject":"nmzxre6kplh8zth"},{"rt":null,"stimulus":"<div style=\"font-size:60px;\">+</div>","key_press":null,"block":"face","trial":"true","test_part":"iti","trial_type":"html-keyboard-response","trial_index":239,"time_elapsed":337011,"internal_node_id":"0.0-5.0-0.0-4.0-0.43","subject":"nmzxre6kplh8zth"},{"rt":null,"stimulus":"audio/5_Valerie.mp3","key_press":null,"block":"face","trial":"true","task":"cue","cue_song":"audio/5_Valerie.mp3","cue_emotion":"happy","trial_type":"audio-keyboard-response","trial_index":240,"time_elapsed":338022,"internal_node_id":"0.0-5.0-0.0-4.0-1.43","subject":"nmzxre6kplh8zth"},{"rt":null,"stimulus":"<div style=\"font-size:60px;\">+</div>","key_press":null,"block":"face","trial":"true","test_part":"isi","trial_type":"html-keyboard-response","trial_index":241,"time_elapsed":338231,"internal_node_id":"0.0-5.0-0.0-4.0-2.43","subject":"nmzxre6kplh8zth"},{"rt":465.2400000486523,"stimulus":"img/BF34HAS.JPG","key_press":37,"block":"face","trial":"true","task":"target","target_stimulus":"img/BF34HAS.JPG","target_emotion":"happy","condition":"congruent","trial_type":"image-keyboard-response","trial_index":242,"time_elapsed":338700,"internal_node_id":"0.0-5.0-0.0-4.0-3.43","subject":"nmzxre6kplh8zth"},{"rt":null,"stimulus":"<div style=\"font-size:60px;\">+</div>","key_press":null,"block":"face","trial":"true","test_part":"iti","trial_type":"html-keyboard-response","trial_index":243,"time_elapsed":340211,"internal_node_id":"0.0-5.0-0.0-4.0-0.44","subject":"nmzxre6kplh8zth"},{"rt":null,"stimulus":"audio/26_Make_Light.mp3","key_press":null,"block":"face","trial":"true","task":"cue","cue_song":"audio/26_Make_Light.mp3","cue_emotion":"happy","trial_type":"audio-keyboard-response","trial_index":244,"time_elapsed":341222,"internal_node_id":"0.0-5.0-0.0-4.0-1.44","subject":"nmzxre6kplh8zth"},{"rt":null,"stimulus":"<div style=\"font-size:60px;\">+</div>","key_press":null,"block":"face","trial":"true","test_part":"isi","trial_type":"html-keyboard-response","trial_index":245,"time_elapsed":341425,"internal_node_id":"0.0-5.0-0.0-4.0-2.44","subject":"nmzxre6kplh8zth"},{"rt":418.42999996151775,"stimulus":"img/BM08HAS.JPG","key_press":39,"block":"face","trial":"true","task":"target","target_stimulus":"img/BM08HAS.JPG","target_emotion":"happy","condition":"congruent","trial_type":"image-keyboard-response","trial_index":246,"time_elapsed":341846,"internal_node_id":"0.0-5.0-0.0-4.0-3.44","subject":"nmzxre6kplh8zth"},{"rt":null,"stimulus":"<div style=\"font-size:60px;\">+</div>","key_press":null,"block":"face","trial":"true","test_part":"iti","trial_type":"html-keyboard-response","trial_index":247,"time_elapsed":343352,"internal_node_id":"0.0-5.0-0.0-4.0-0.45","subject":"nmzxre6kplh8zth"},{"rt":null,"stimulus":"audio/21_Skank_Down.mp3","key_press":null,"block":"face","trial":"true","task":"cue","cue_song":"audio/21_Skank_Down.mp3","cue_emotion":"happy","trial_type":"audio-keyboard-response","trial_index":248,"time_elapsed":344373,"internal_node_id":"0.0-5.0-0.0-4.0-1.45","subject":"nmzxre6kplh8zth"},{"rt":null,"stimulus":"<div style=\"font-size:60px;\">+</div>","key_press":null,"block":"face","trial":"true","test_part":"isi","trial_type":"html-keyboard-response","trial_index":249,"time_elapsed":344582,"internal_node_id":"0.0-5.0-0.0-4.0-2.45","subject":"nmzxre6kplh8zth"},{"rt":1100.0799998873845,"stimulus":"img/BM08ANS.JPG","key_press":39,"block":"face","trial":"true","task":"target","target_stimulus":"img/BM08ANS.JPG","target_emotion":"angry","condition":"incongruent","trial_type":"image-keyboard-response","trial_index":250,"time_elapsed":345684,"internal_node_id":"0.0-5.0-0.0-4.0-3.45","subject":"nmzxre6kplh8zth"},{"rt":null,"stimulus":"<div style=\"font-size:60px;\">+</div>","key_press":null,"block":"face","trial":"true","test_part":"iti","trial_type":"html-keyboard-response","trial_index":251,"time_elapsed":347191,"internal_node_id":"0.0-5.0-0.0-4.0-0.46","subject":"nmzxre6kplh8zth"},{"rt":null,"stimulus":"audio/12_Skinny_Love.mp3","key_press":null,"block":"face","trial":"true","task":"cue","cue_song":"audio/12_Skinny_Love.mp3","cue_emotion":"sad","trial_type":"audio-keyboard-response","trial_index":252,"time_elapsed":348202,"internal_node_id":"0.0-5.0-0.0-4.0-1.46","subject":"nmzxre6kplh8zth"},{"rt":null,"stimulus":"<div style=\"font-size:60px;\">+</div>","key_press":null,"block":"face","trial":"true","test_part":"isi","trial_type":"html-keyboard-response","trial_index":253,"time_elapsed":348411,"internal_node_id":"0.0-5.0-0.0-4.0-2.46","subject":"nmzxre6kplh8zth"},{"rt":515.0150000117719,"stimulus":"img/BM08SAS.JPG","key_press":37,"block":"face","trial":"true","task":"target","target_stimulus":"img/BM08SAS.JPG","target_emotion":"sad","condition":"congruent","trial_type":"image-keyboard-response","trial_index":254,"time_elapsed":348929,"internal_node_id":"0.0-5.0-0.0-4.0-3.46","subject":"nmzxre6kplh8zth"},{"rt":null,"stimulus":"<div style=\"font-size:60px;\">+</div>","key_press":null,"block":"face","trial":"true","test_part":"iti","trial_type":"html-keyboard-response","trial_index":255,"time_elapsed":350441,"internal_node_id":"0.0-5.0-0.0-4.0-0.47","subject":"nmzxre6kplh8zth"},{"rt":null,"stimulus":"audio/8_Fire_And_Rain__(LP_Version).mp3","key_press":null,"block":"face","trial":"true","task":"cue","cue_song":"audio/8_Fire_And_Rain__(LP_Version).mp3","cue_emotion":"sad","trial_type":"audio-keyboard-response","trial_index":256,"time_elapsed":351444,"internal_node_id":"0.0-5.0-0.0-4.0-1.47","subject":"nmzxre6kplh8zth"},{"rt":null,"stimulus":"<div style=\"font-size:60px;\">+</div>","key_press":null,"block":"face","trial":"true","test_part":"isi","trial_type":"html-keyboard-response","trial_index":257,"time_elapsed":351647,"internal_node_id":"0.0-5.0-0.0-4.0-2.47","subject":"nmzxre6kplh8zth"},{"rt":703.2549999421462,"stimulus":"img/BF34ANS.JPG","key_press":37,"block":"face","trial":"true","task":"target","target_stimulus":"img/BF34ANS.JPG","target_emotion":"angry","condition":"incongruent","trial_type":"image-keyboard-response","trial_index":258,"time_elapsed":352353,"internal_node_id":"0.0-5.0-0.0-4.0-3.47","subject":"nmzxre6kplh8zth"},{"rt":3299.709999933839,"stimulus":"<p>This part of the experiment is now over </p><br><strong>Press the any key to move onto the next part</strong>","key_press":37,"block":"face","task":"end_block","trial_type":"html-keyboard-response","trial_index":259,"time_elapsed":355655,"internal_node_id":"0.0-5.0-0.0-5.0","subject":"nmzxre6kplh8zth"},{"rt":4527.890000026673,"stimulus":"<p>In this part of the experiment you will hear a short musical clip and then shortly be shown a word</p><br><br><p><strong>If the emotion in the song and the word match then press the left arrow key (&larr;)</p><br><p>If the emotion in the song and the word do not match then press the right arrow key (&rarr;)</strong><p>Please be as quick and accurate as possible</p><p>Press the space bar to begin</p>","key_press":32,"block":"word","task":"instruction","trial_type":"html-keyboard-response","trial_index":260,"time_elapsed":360184,"internal_node_id":"0.0-5.0-1.0-0.0","subject":"nmzxre6kplh8zth"},{"rt":2034.9649999989197,"stimulus":"static/img/instruct.jpg","key_press":37,"block":"word","trial_type":"image-keyboard-response","trial_index":261,"time_elapsed":362223,"internal_node_id":"0.0-5.0-1.0-1.0","subject":"nmzxre6kplh8zth"},{"rt":null,"stimulus":"<div style=\"font-size:60px;\">+</div>","key_press":null,"block":"word","trial":"false","test_part":"iti","trial_type":"html-keyboard-response","trial_index":262,"time_elapsed":363731,"internal_node_id":"0.0-5.0-1.0-2.0-0.0-0.0","subject":"nmzxre6kplh8zth"},{"rt":null,"stimulus":"audio/15_Bunkertor_7.mp3","key_press":null,"block":"word","trial":"false","trial_type":"audio-keyboard-response","trial_index":263,"time_elapsed":364736,"internal_node_id":"0.0-5.0-1.0-2.0-0.0-1.0","subject":"nmzxre6kplh8zth"},{"rt":null,"stimulus":"<div style=\"font-size:60px;\">+</div>","key_press":null,"block":"word","trial":"false","test_part":"isi","trial_type":"html-keyboard-response","trial_index":264,"time_elapsed":364945,"internal_node_id":"0.0-5.0-1.0-2.0-0.0-2.0","subject":"nmzxre6kplh8zth"},{"rt":902.4450000142679,"stimulus":"<p style=\"font-size: 48px; font-family: monospace;\">SAD</p>","key_press":39,"block":"word","trial":"false","task":"face_practice_target","trial_type":"html-keyboard-response","trial_index":265,"time_elapsed":365850,"internal_node_id":"0.0-5.0-1.0-2.0-0.0-3.0","subject":"nmzxre6kplh8zth","correct":true},{"rt":1817.0699999900535,"stimulus":"<p>Correct! The emotions do not match!</p><br> Press the any key to continue to the next trial","key_press":37,"block":"word","trial":"false","trial_type":"html-keyboard-response","trial_index":266,"time_elapsed":367670,"internal_node_id":"0.0-5.0-1.0-2.0-0.0-4.0","subject":"nmzxre6kplh8zth"},{"rt":null,"stimulus":"<div style=\"font-size:60px;\">+</div>","key_press":null,"block":"word","trial":"false","test_part":"iti","trial_type":"html-keyboard-response","trial_index":267,"time_elapsed":369175,"internal_node_id":"0.0-5.0-1.0-2.0-1.0-0.0","subject":"nmzxre6kplh8zth"},{"rt":null,"stimulus":"audio/15_Bunkertor_7.mp3","key_press":null,"block":"word","trial":"false","trial_type":"audio-keyboard-response","trial_index":268,"time_elapsed":370187,"internal_node_id":"0.0-5.0-1.0-2.0-1.0-1.0","subject":"nmzxre6kplh8zth"},{"rt":null,"stimulus":"<div style=\"font-size:60px;\">+</div>","key_press":null,"block":"word","trial":"false","test_part":"isi","trial_type":"html-keyboard-response","trial_index":269,"time_elapsed":370395,"internal_node_id":"0.0-5.0-1.0-2.0-1.0-2.0","subject":"nmzxre6kplh8zth"},{"rt":525.8499999763444,"stimulus":"<p style=\"font-size: 48px; font-family: monospace;\">SAD</p>","key_press":39,"block":"word","trial":"false","task":"face_practice_target","trial_type":"html-keyboard-response","trial_index":270,"time_elapsed":370924,"internal_node_id":"0.0-5.0-1.0-2.0-1.0-3.0","subject":"nmzxre6kplh8zth","correct":true},{"rt":3537.8550000023097,"stimulus":"<p>Correct! The emotions do not match!</p><br> Press the any key to continue to the next trial","key_press":37,"block":"word","trial":"false","trial_type":"html-keyboard-response","trial_index":271,"time_elapsed":374464,"internal_node_id":"0.0-5.0-1.0-2.0-1.0-4.0","subject":"nmzxre6kplh8zth"},{"rt":null,"stimulus":"<div style=\"font-size:60px;\">+</div>","key_press":null,"block":"word","trial":"false","test_part":"iti","trial_type":"html-keyboard-response","trial_index":272,"time_elapsed":375975,"internal_node_id":"0.0-5.0-1.0-2.0-2.0-0.0","subject":"nmzxre6kplh8zth"},{"rt":null,"stimulus":"audio/15_Bunkertor_7.mp3","key_press":null,"block":"word","trial":"false","trial_type":"audio-keyboard-response","trial_index":273,"time_elapsed":376986,"internal_node_id":"0.0-5.0-1.0-2.0-2.0-1.0","subject":"nmzxre6kplh8zth"},{"rt":null,"stimulus":"<div style=\"font-size:60px;\">+</div>","key_press":null,"block":"word","trial":"false","test_part":"isi","trial_type":"html-keyboard-response","trial_index":274,"time_elapsed":377195,"internal_node_id":"0.0-5.0-1.0-2.0-2.0-2.0","subject":"nmzxre6kplh8zth"},{"rt":481.3849999336526,"stimulus":"<p style=\"font-size: 48px; font-family: monospace;\">ANGRY</p>","key_press":37,"block":"word","trial":"false","task":"face_practice_target","trial_type":"html-keyboard-response","trial_index":275,"time_elapsed":377679,"internal_node_id":"0.0-5.0-1.0-2.0-2.0-3.0","subject":"nmzxre6kplh8zth","correct":true},{"rt":4617.174999904819,"stimulus":"<p>Correct! The emotions do match!</p><br> Press the any key to continue to the next trial","key_press":37,"block":"word","trial":"false","trial_type":"html-keyboard-response","trial_index":276,"time_elapsed":382298,"internal_node_id":"0.0-5.0-1.0-2.0-2.0-4.0","subject":"nmzxre6kplh8zth"},{"rt":1081.1049999902025,"stimulus":"The practice trials are now complete. Press the any key to begin the experimental trials","key_press":37,"block":"word","trial_type":"html-keyboard-response","trial_index":277,"time_elapsed":383380,"internal_node_id":"0.0-5.0-1.0-3.0","subject":"nmzxre6kplh8zth"},{"rt":null,"stimulus":"<div style=\"font-size:60px;\">+</div>","key_press":null,"block":"word","trial":"true","test_part":"iti","trial_type":"html-keyboard-response","trial_index":278,"time_elapsed":384885,"internal_node_id":"0.0-5.0-1.0-4.0-0.0","subject":"nmzxre6kplh8zth"},{"rt":null,"stimulus":"audio/12_Skinny_Love.mp3","key_press":null,"block":"word","trial":"true","task":"cue","cue_song":"audio/12_Skinny_Love.mp3","cue_emotion":"sad","trial_type":"audio-keyboard-response","trial_index":279,"time_elapsed":385896,"internal_node_id":"0.0-5.0-1.0-4.0-1.0","subject":"nmzxre6kplh8zth"},{"rt":null,"stimulus":"<div style=\"font-size:60px;\">+</div>","key_press":null,"block":"word","trial":"true","test_part":"isi","trial_type":"html-keyboard-response","trial_index":280,"time_elapsed":386106,"internal_node_id":"0.0-5.0-1.0-4.0-2.0","subject":"nmzxre6kplh8zth"},{"rt":605.5100000230595,"stimulus":"<p style=\"font-size: 48px; font-family: monospace;\">SAD</p>","key_press":39,"block":"word","trial":"true","task":"target","target_stimulus":"sad","target_emotion":"sad","condition":"congruent","trial_type":"html-keyboard-response","trial_index":281,"time_elapsed":386715,"internal_node_id":"0.0-5.0-1.0-4.0-3.0","subject":"nmzxre6kplh8zth"},{"rt":null,"stimulus":"<div style=\"font-size:60px;\">+</div>","key_press":null,"block":"word","trial":"true","test_part":"iti","trial_type":"html-keyboard-response","trial_index":282,"time_elapsed":388224,"internal_node_id":"0.0-5.0-1.0-4.0-0.1","subject":"nmzxre6kplh8zth"},{"rt":null,"stimulus":"audio/1_Be_Happy.mp3","key_press":null,"block":"word","trial":"true","task":"cue","cue_song":"audio/1_Be_Happy.mp3","cue_emotion":"happy","trial_type":"audio-keyboard-response","trial_index":283,"time_elapsed":389234,"internal_node_id":"0.0-5.0-1.0-4.0-1.1","subject":"nmzxre6kplh8zth"},{"rt":null,"stimulus":"<div style=\"font-size:60px;\">+</div>","key_press":null,"block":"word","trial":"true","test_part":"isi","trial_type":"html-keyboard-response","trial_index":284,"time_elapsed":389444,"internal_node_id":"0.0-5.0-1.0-4.0-2.1","subject":"nmzxre6kplh8zth"},{"rt":498.4600000316277,"stimulus":"<p style=\"font-size: 48px; font-family: monospace;\">HAPPY</p>","key_press":37,"block":"word","trial":"true","task":"target","target_stimulus":"happy","target_emotion":"happy","condition":"congruent","trial_type":"html-keyboard-response","trial_index":285,"time_elapsed":389945,"internal_node_id":"0.0-5.0-1.0-4.0-3.1","subject":"nmzxre6kplh8zth"},{"rt":null,"stimulus":"<div style=\"font-size:60px;\">+</div>","key_press":null,"block":"word","trial":"true","test_part":"iti","trial_type":"html-keyboard-response","trial_index":286,"time_elapsed":391455,"internal_node_id":"0.0-5.0-1.0-4.0-0.2","subject":"nmzxre6kplh8zth"},{"rt":null,"stimulus":"audio/5_Valerie.mp3","key_press":null,"block":"word","trial":"true","task":"cue","cue_song":"audio/5_Valerie.mp3","cue_emotion":"happy","trial_type":"audio-keyboard-response","trial_index":287,"time_elapsed":392466,"internal_node_id":"0.0-5.0-1.0-4.0-1.2","subject":"nmzxre6kplh8zth"},{"rt":null,"stimulus":"<div style=\"font-size:60px;\">+</div>","key_press":null,"block":"word","trial":"true","test_part":"isi","trial_type":"html-keyboard-response","trial_index":288,"time_elapsed":392675,"internal_node_id":"0.0-5.0-1.0-4.0-2.2","subject":"nmzxre6kplh8zth"},{"rt":456.6249999916181,"stimulus":"<p style=\"font-size: 48px; font-family: monospace;\">SAD</p>","key_press":39,"block":"word","trial":"true","task":"target","target_stimulus":"sad","target_emotion":"sad","condition":"incongruent","trial_type":"html-keyboard-response","trial_index":289,"time_elapsed":393134,"internal_node_id":"0.0-5.0-1.0-4.0-3.2","subject":"nmzxre6kplh8zth"},{"rt":null,"stimulus":"<div style=\"font-size:60px;\">+</div>","key_press":null,"block":"word","trial":"true","test_part":"iti","trial_type":"html-keyboard-response","trial_index":290,"time_elapsed":394645,"internal_node_id":"0.0-5.0-1.0-4.0-0.3","subject":"nmzxre6kplh8zth"},{"rt":null,"stimulus":"audio/12_Skinny_Love.mp3","key_press":null,"block":"word","trial":"true","task":"cue","cue_song":"audio/12_Skinny_Love.mp3","cue_emotion":"sad","trial_type":"audio-keyboard-response","trial_index":291,"time_elapsed":395656,"internal_node_id":"0.0-5.0-1.0-4.0-1.3","subject":"nmzxre6kplh8zth"},{"rt":null,"stimulus":"<div style=\"font-size:60px;\">+</div>","key_press":null,"block":"word","trial":"true","test_part":"isi","trial_type":"html-keyboard-response","trial_index":292,"time_elapsed":395866,"internal_node_id":"0.0-5.0-1.0-4.0-2.3","subject":"nmzxre6kplh8zth"},{"rt":653.3200000412762,"stimulus":"<p style=\"font-size: 48px; font-family: monospace;\">HAPPY</p>","key_press":39,"block":"word","trial":"true","task":"target","target_stimulus":"happy","target_emotion":"happy","condition":"incongruent","trial_type":"html-keyboard-response","trial_index":293,"time_elapsed":396522,"internal_node_id":"0.0-5.0-1.0-4.0-3.3","subject":"nmzxre6kplh8zth"},{"rt":null,"stimulus":"<div style=\"font-size:60px;\">+</div>","key_press":null,"block":"word","trial":"true","test_part":"iti","trial_type":"html-keyboard-response","trial_index":294,"time_elapsed":398024,"internal_node_id":"0.0-5.0-1.0-4.0-0.4","subject":"nmzxre6kplh8zth"},{"rt":null,"stimulus":"audio/21_Skank_Down.mp3","key_press":null,"block":"word","trial":"true","task":"cue","cue_song":"audio/21_Skank_Down.mp3","cue_emotion":"happy","trial_type":"audio-keyboard-response","trial_index":295,"time_elapsed":399036,"internal_node_id":"0.0-5.0-1.0-4.0-1.4","subject":"nmzxre6kplh8zth"},{"rt":null,"stimulus":"<div style=\"font-size:60px;\">+</div>","key_press":null,"block":"word","trial":"true","test_part":"isi","trial_type":"html-keyboard-response","trial_index":296,"time_elapsed":399245,"internal_node_id":"0.0-5.0-1.0-4.0-2.4","subject":"nmzxre6kplh8zth"},{"rt":943.4050000272691,"stimulus":"<p style=\"font-size: 48px; font-family: monospace;\">SAD</p>","key_press":39,"block":"word","trial":"true","task":"target","target_stimulus":"sad","target_emotion":"sad","condition":"incongruent","trial_type":"html-keyboard-response","trial_index":297,"time_elapsed":400191,"internal_node_id":"0.0-5.0-1.0-4.0-3.4","subject":"nmzxre6kplh8zth"},{"rt":null,"stimulus":"<div style=\"font-size:60px;\">+</div>","key_press":null,"block":"word","trial":"true","test_part":"iti","trial_type":"html-keyboard-response","trial_index":298,"time_elapsed":401693,"internal_node_id":"0.0-5.0-1.0-4.0-0.5","subject":"nmzxre6kplh8zth"},{"rt":null,"stimulus":"audio/2_Loves_Requiem.mp3","key_press":null,"block":"word","trial":"true","task":"cue","cue_song":"audio/2_Loves_Requiem.mp3","cue_emotion":"sad","trial_type":"audio-keyboard-response","trial_index":299,"time_elapsed":402706,"internal_node_id":"0.0-5.0-1.0-4.0-1.5","subject":"nmzxre6kplh8zth"},{"rt":null,"stimulus":"<div style=\"font-size:60px;\">+</div>","key_press":null,"block":"word","trial":"true","test_part":"isi","trial_type":"html-keyboard-response","trial_index":300,"time_elapsed":402916,"internal_node_id":"0.0-5.0-1.0-4.0-2.5","subject":"nmzxre6kplh8zth"},{"rt":615.7200000016019,"stimulus":"<p style=\"font-size: 48px; font-family: monospace;\">ANGRY</p>","key_press":39,"block":"word","trial":"true","task":"target","target_stimulus":"angry","target_emotion":"angry","condition":"incongruent","trial_type":"html-keyboard-response","trial_index":301,"time_elapsed":403534,"internal_node_id":"0.0-5.0-1.0-4.0-3.5","subject":"nmzxre6kplh8zth"},{"rt":null,"stimulus":"<div style=\"font-size:60px;\">+</div>","key_press":null,"block":"word","trial":"true","test_part":"iti","trial_type":"html-keyboard-response","trial_index":302,"time_elapsed":405045,"internal_node_id":"0.0-5.0-1.0-4.0-0.6","subject":"nmzxre6kplh8zth"},{"rt":null,"stimulus":"audio/12_Skinny_Love.mp3","key_press":null,"block":"word","trial":"true","task":"cue","cue_song":"audio/12_Skinny_Love.mp3","cue_emotion":"sad","trial_type":"audio-keyboard-response","trial_index":303,"time_elapsed":406056,"internal_node_id":"0.0-5.0-1.0-4.0-1.6","subject":"nmzxre6kplh8zth"},{"rt":null,"stimulus":"<div style=\"font-size:60px;\">+</div>","key_press":null,"block":"word","trial":"true","test_part":"isi","trial_type":"html-keyboard-response","trial_index":304,"time_elapsed":406265,"internal_node_id":"0.0-5.0-1.0-4.0-2.6","subject":"nmzxre6kplh8zth"},{"rt":543.7500000698492,"stimulus":"<p style=\"font-size: 48px; font-family: monospace;\">HAPPY</p>","key_press":39,"block":"word","trial":"true","task":"target","target_stimulus":"happy","target_emotion":"happy","condition":"incongruent","trial_type":"html-keyboard-response","trial_index":305,"time_elapsed":406811,"internal_node_id":"0.0-5.0-1.0-4.0-3.6","subject":"nmzxre6kplh8zth"},{"rt":null,"stimulus":"<div style=\"font-size:60px;\">+</div>","key_press":null,"block":"word","trial":"true","test_part":"iti","trial_type":"html-keyboard-response","trial_index":306,"time_elapsed":408315,"internal_node_id":"0.0-5.0-1.0-4.0-0.7","subject":"nmzxre6kplh8zth"},{"rt":null,"stimulus":"audio/12_Skinny_Love.mp3","key_press":null,"block":"word","trial":"true","task":"cue","cue_song":"audio/12_Skinny_Love.mp3","cue_emotion":"sad","trial_type":"audio-keyboard-response","trial_index":307,"time_elapsed":409336,"internal_node_id":"0.0-5.0-1.0-4.0-1.7","subject":"nmzxre6kplh8zth"},{"rt":null,"stimulus":"<div style=\"font-size:60px;\">+</div>","key_press":null,"block":"word","trial":"true","test_part":"isi","trial_type":"html-keyboard-response","trial_index":308,"time_elapsed":409545,"internal_node_id":"0.0-5.0-1.0-4.0-2.7","subject":"nmzxre6kplh8zth"},{"rt":613.0249999696389,"stimulus":"<p style=\"font-size: 48px; font-family: monospace;\">ANGRY</p>","key_press":39,"block":"word","trial":"true","task":"target","target_stimulus":"angry","target_emotion":"angry","condition":"incongruent","trial_type":"html-keyboard-response","trial_index":309,"time_elapsed":410160,"internal_node_id":"0.0-5.0-1.0-4.0-3.7","subject":"nmzxre6kplh8zth"},{"rt":null,"stimulus":"<div style=\"font-size:60px;\">+</div>","key_press":null,"block":"word","trial":"true","test_part":"iti","trial_type":"html-keyboard-response","trial_index":310,"time_elapsed":411663,"internal_node_id":"0.0-5.0-1.0-4.0-0.8","subject":"nmzxre6kplh8zth"},{"rt":null,"stimulus":"audio/8_Fire_And_Rain__(LP_Version).mp3","key_press":null,"block":"word","trial":"true","task":"cue","cue_song":"audio/8_Fire_And_Rain__(LP_Version).mp3","cue_emotion":"sad","trial_type":"audio-keyboard-response","trial_index":311,"time_elapsed":412667,"internal_node_id":"0.0-5.0-1.0-4.0-1.8","subject":"nmzxre6kplh8zth"},{"rt":null,"stimulus":"<div style=\"font-size:60px;\">+</div>","key_press":null,"block":"word","trial":"true","test_part":"isi","trial_type":"html-keyboard-response","trial_index":312,"time_elapsed":412875,"internal_node_id":"0.0-5.0-1.0-4.0-2.8","subject":"nmzxre6kplh8zth"},{"rt":1552.960000000894,"stimulus":"<p style=\"font-size: 48px; font-family: monospace;\">HAPPY</p>","key_press":39,"block":"word","trial":"true","task":"target","target_stimulus":"happy","target_emotion":"happy","condition":"incongruent","trial_type":"html-keyboard-response","trial_index":313,"time_elapsed":414431,"internal_node_id":"0.0-5.0-1.0-4.0-3.8","subject":"nmzxre6kplh8zth"},{"rt":null,"stimulus":"<div style=\"font-size:60px;\">+</div>","key_press":null,"block":"word","trial":"true","test_part":"iti","trial_type":"html-keyboard-response","trial_index":314,"time_elapsed":415935,"internal_node_id":"0.0-5.0-1.0-4.0-0.9","subject":"nmzxre6kplh8zth"},{"rt":null,"stimulus":"audio/2_Loves_Requiem.mp3","key_press":null,"block":"word","trial":"true","task":"cue","cue_song":"audio/2_Loves_Requiem.mp3","cue_emotion":"sad","trial_type":"audio-keyboard-response","trial_index":315,"time_elapsed":416946,"internal_node_id":"0.0-5.0-1.0-4.0-1.9","subject":"nmzxre6kplh8zth"},{"rt":null,"stimulus":"<div style=\"font-size:60px;\">+</div>","key_press":null,"block":"word","trial":"true","test_part":"isi","trial_type":"html-keyboard-response","trial_index":316,"time_elapsed":417155,"internal_node_id":"0.0-5.0-1.0-4.0-2.9","subject":"nmzxre6kplh8zth"},{"rt":601.4199999626726,"stimulus":"<p style=\"font-size: 48px; font-family: monospace;\">HAPPY</p>","key_press":39,"block":"word","trial":"true","task":"target","target_stimulus":"happy","target_emotion":"happy","condition":"incongruent","trial_type":"html-keyboard-response","trial_index":317,"time_elapsed":417759,"internal_node_id":"0.0-5.0-1.0-4.0-3.9","subject":"nmzxre6kplh8zth"},{"rt":null,"stimulus":"<div style=\"font-size:60px;\">+</div>","key_press":null,"block":"word","trial":"true","test_part":"iti","trial_type":"html-keyboard-response","trial_index":318,"time_elapsed":419265,"internal_node_id":"0.0-5.0-1.0-4.0-0.10","subject":"nmzxre6kplh8zth"},{"rt":null,"stimulus":"audio/26_Make_Light.mp3","key_press":null,"block":"word","trial":"true","task":"cue","cue_song":"audio/26_Make_Light.mp3","cue_emotion":"happy","trial_type":"audio-keyboard-response","trial_index":319,"time_elapsed":420273,"internal_node_id":"0.0-5.0-1.0-4.0-1.10","subject":"nmzxre6kplh8zth"},{"rt":null,"stimulus":"<div style=\"font-size:60px;\">+</div>","key_press":null,"block":"word","trial":"true","test_part":"isi","trial_type":"html-keyboard-response","trial_index":320,"time_elapsed":420485,"internal_node_id":"0.0-5.0-1.0-4.0-2.10","subject":"nmzxre6kplh8zth"},{"rt":591.3549999240786,"stimulus":"<p style=\"font-size: 48px; font-family: monospace;\">ANGRY</p>","key_press":39,"block":"word","trial":"true","task":"target","target_stimulus":"angry","target_emotion":"angry","condition":"incongruent","trial_type":"html-keyboard-response","trial_index":321,"time_elapsed":421079,"internal_node_id":"0.0-5.0-1.0-4.0-3.10","subject":"nmzxre6kplh8zth"},{"rt":null,"stimulus":"<div style=\"font-size:60px;\">+</div>","key_press":null,"block":"word","trial":"true","test_part":"iti","trial_type":"html-keyboard-response","trial_index":322,"time_elapsed":422584,"internal_node_id":"0.0-5.0-1.0-4.0-0.11","subject":"nmzxre6kplh8zth"},{"rt":null,"stimulus":"audio/3_Old_Blacktop.mp3","key_press":null,"block":"word","trial":"true","task":"cue","cue_song":"audio/3_Old_Blacktop.mp3","cue_emotion":"sad","trial_type":"audio-keyboard-response","trial_index":323,"time_elapsed":423596,"internal_node_id":"0.0-5.0-1.0-4.0-1.11","subject":"nmzxre6kplh8zth"},{"rt":null,"stimulus":"<div style=\"font-size:60px;\">+</div>","key_press":null,"block":"word","trial":"true","test_part":"isi","trial_type":"html-keyboard-response","trial_index":324,"time_elapsed":423803,"internal_node_id":"0.0-5.0-1.0-4.0-2.11","subject":"nmzxre6kplh8zth"},{"rt":713.2699999492615,"stimulus":"<p style=\"font-size: 48px; font-family: monospace;\">HAPPY</p>","key_press":39,"block":"word","trial":"true","task":"target","target_stimulus":"happy","target_emotion":"happy","condition":"incongruent","trial_type":"html-keyboard-response","trial_index":325,"time_elapsed":424518,"internal_node_id":"0.0-5.0-1.0-4.0-3.11","subject":"nmzxre6kplh8zth"},{"rt":null,"stimulus":"<div style=\"font-size:60px;\">+</div>","key_press":null,"block":"word","trial":"true","test_part":"iti","trial_type":"html-keyboard-response","trial_index":326,"time_elapsed":426025,"internal_node_id":"0.0-5.0-1.0-4.0-0.12","subject":"nmzxre6kplh8zth"},{"rt":null,"stimulus":"audio/2_Loves_Requiem.mp3","key_press":null,"block":"word","trial":"true","task":"cue","cue_song":"audio/2_Loves_Requiem.mp3","cue_emotion":"sad","trial_type":"audio-keyboard-response","trial_index":327,"time_elapsed":427036,"internal_node_id":"0.0-5.0-1.0-4.0-1.12","subject":"nmzxre6kplh8zth"},{"rt":null,"stimulus":"<div style=\"font-size:60px;\">+</div>","key_press":null,"block":"word","trial":"true","test_part":"isi","trial_type":"html-keyboard-response","trial_index":328,"time_elapsed":427239,"internal_node_id":"0.0-5.0-1.0-4.0-2.12","subj